Jan. 23, 2018   16:46:06
Chronopotentiometry
File: c:\users\lingd\desktop\Data Source:  Experiment
Instrument Model:  CHI660E
Header: 
Note: 

Cathodic Current (A) = 0.0324
Anodic Current (A) = 0.0324
Init P/N = N
Data Storage Interval (s) = 0.01
High E Limit (V) = 0.9
Low E Limit (V) = -0.1
Cathodic Time (s) = 10
Anodic Time (s) = 10
Current Switching Polarity = Potential
Segment = 5

Time/sec, Potential/V

1.000e-2, -8.588e-2
2.000e-2, -8.823e-2
3.000e-2, -9.048e-2
4.000e-2, -9.240e-2
5.000e-2, -9.362e-2
6.000e-2, -9.469e-2
7.000e-2, -9.589e-2
8.000e-2, -9.716e-2
9.000e-2, -9.845e-2
1.000e-1, -9.972e-2
1.100e-1, -1.487e-2
1.200e-1, -9.776e-3
1.300e-1, -7.344e-3
1.400e-1, -5.096e-3
1.500e-1, -2.928e-3
1.600e-1, -8.339e-4
1.700e-1, 1.186e-3
1.800e-1, 3.124e-3
1.900e-1, 4.990e-3
2.000e-1, 6.784e-3
2.100e-1, 8.518e-3
2.200e-1, 1.019e-2
2.300e-1, 1.181e-2
2.400e-1, 1.339e-2
2.500e-1, 1.492e-2
2.600e-1, 1.642e-2
2.700e-1, 1.787e-2
2.800e-1, 1.929e-2
2.900e-1, 2.068e-2
3.000e-1, 2.203e-2
3.100e-1, 2.336e-2
3.200e-1, 2.466e-2
3.300e-1, 2.593e-2
3.400e-1, 2.717e-2
3.500e-1, 2.839e-2
3.600e-1, 2.960e-2
3.700e-1, 3.079e-2
3.800e-1, 3.197e-2
3.900e-1, 3.312e-2
4.000e-1, 3.426e-2
4.100e-1, 3.538e-2
4.200e-1, 3.650e-2
4.300e-1, 3.759e-2
4.400e-1, 3.868e-2
4.500e-1, 3.975e-2
4.600e-1, 4.083e-2
4.700e-1, 4.187e-2
4.800e-1, 4.291e-2
4.900e-1, 4.393e-2
5.000e-1, 4.496e-2
5.100e-1, 4.599e-2
5.200e-1, 4.701e-2
5.300e-1, 4.804e-2
5.400e-1, 4.905e-2
5.500e-1, 5.006e-2
5.600e-1, 5.105e-2
5.700e-1, 5.200e-2
5.800e-1, 5.292e-2
5.900e-1, 5.383e-2
6.000e-1, 5.472e-2
6.100e-1, 5.566e-2
6.200e-1, 5.659e-2
6.300e-1, 5.752e-2
6.400e-1, 5.844e-2
6.500e-1, 5.932e-2
6.600e-1, 6.020e-2
6.700e-1, 6.106e-2
6.800e-1, 6.194e-2
6.900e-1, 6.284e-2
7.000e-1, 6.375e-2
7.100e-1, 6.466e-2
7.200e-1, 6.556e-2
7.300e-1, 6.642e-2
7.400e-1, 6.724e-2
7.500e-1, 6.805e-2
7.600e-1, 6.888e-2
7.700e-1, 6.970e-2
7.800e-1, 7.054e-2
7.900e-1, 7.138e-2
8.000e-1, 7.221e-2
8.100e-1, 7.304e-2
8.200e-1, 7.386e-2
8.300e-1, 7.469e-2
8.400e-1, 7.551e-2
8.500e-1, 7.632e-2
8.600e-1, 7.713e-2
8.700e-1, 7.795e-2
8.800e-1, 7.877e-2
8.900e-1, 7.959e-2
9.000e-1, 8.040e-2
9.100e-1, 8.120e-2
9.200e-1, 8.200e-2
9.300e-1, 8.281e-2
9.400e-1, 8.362e-2
9.500e-1, 8.442e-2
9.600e-1, 8.521e-2
9.700e-1, 8.601e-2
9.800e-1, 8.681e-2
9.900e-1, 8.760e-2
1.000e+0, 8.839e-2
1.010e+0, 8.917e-2
1.020e+0, 8.996e-2
1.030e+0, 9.073e-2
1.040e+0, 9.151e-2
1.050e+0, 9.229e-2
1.060e+0, 9.307e-2
1.070e+0, 9.384e-2
1.080e+0, 9.463e-2
1.090e+0, 9.540e-2
1.100e+0, 9.618e-2
1.110e+0, 9.695e-2
1.120e+0, 9.772e-2
1.130e+0, 9.849e-2
1.140e+0, 9.926e-2
1.150e+0, 1.000e-1
1.160e+0, 1.008e-1
1.170e+0, 1.015e-1
1.180e+0, 1.023e-1
1.190e+0, 1.031e-1
1.200e+0, 1.038e-1
1.210e+0, 1.046e-1
1.220e+0, 1.053e-1
1.230e+0, 1.061e-1
1.240e+0, 1.068e-1
1.250e+0, 1.076e-1
1.260e+0, 1.083e-1
1.270e+0, 1.091e-1
1.280e+0, 1.098e-1
1.290e+0, 1.106e-1
1.300e+0, 1.114e-1
1.310e+0, 1.121e-1
1.320e+0, 1.128e-1
1.330e+0, 1.136e-1
1.340e+0, 1.143e-1
1.350e+0, 1.151e-1
1.360e+0, 1.158e-1
1.370e+0, 1.166e-1
1.380e+0, 1.173e-1
1.390e+0, 1.180e-1
1.400e+0, 1.188e-1
1.410e+0, 1.195e-1
1.420e+0, 1.202e-1
1.430e+0, 1.210e-1
1.440e+0, 1.217e-1
1.450e+0, 1.224e-1
1.460e+0, 1.232e-1
1.470e+0, 1.239e-1
1.480e+0, 1.246e-1
1.490e+0, 1.253e-1
1.500e+0, 1.261e-1
1.510e+0, 1.268e-1
1.520e+0, 1.275e-1
1.530e+0, 1.283e-1
1.540e+0, 1.290e-1
1.550e+0, 1.297e-1
1.560e+0, 1.304e-1
1.570e+0, 1.312e-1
1.580e+0, 1.319e-1
1.590e+0, 1.326e-1
1.600e+0, 1.333e-1
1.610e+0, 1.340e-1
1.620e+0, 1.348e-1
1.630e+0, 1.355e-1
1.640e+0, 1.362e-1
1.650e+0, 1.369e-1
1.660e+0, 1.376e-1
1.670e+0, 1.383e-1
1.680e+0, 1.391e-1
1.690e+0, 1.398e-1
1.700e+0, 1.405e-1
1.710e+0, 1.412e-1
1.720e+0, 1.419e-1
1.730e+0, 1.426e-1
1.740e+0, 1.433e-1
1.750e+0, 1.440e-1
1.760e+0, 1.447e-1
1.770e+0, 1.455e-1
1.780e+0, 1.462e-1
1.790e+0, 1.469e-1
1.800e+0, 1.476e-1
1.810e+0, 1.483e-1
1.820e+0, 1.490e-1
1.830e+0, 1.497e-1
1.840e+0, 1.504e-1
1.850e+0, 1.511e-1
1.860e+0, 1.518e-1
1.870e+0, 1.525e-1
1.880e+0, 1.532e-1
1.890e+0, 1.539e-1
1.900e+0, 1.546e-1
1.910e+0, 1.553e-1
1.920e+0, 1.560e-1
1.930e+0, 1.567e-1
1.940e+0, 1.574e-1
1.950e+0, 1.581e-1
1.960e+0, 1.588e-1
1.970e+0, 1.595e-1
1.980e+0, 1.602e-1
1.990e+0, 1.609e-1
2.000e+0, 1.615e-1
2.010e+0, 1.622e-1
2.020e+0, 1.629e-1
2.030e+0, 1.636e-1
2.040e+0, 1.643e-1
2.050e+0, 1.650e-1
2.060e+0, 1.657e-1
2.070e+0, 1.664e-1
2.080e+0, 1.671e-1
2.090e+0, 1.678e-1
2.100e+0, 1.684e-1
2.110e+0, 1.691e-1
2.120e+0, 1.698e-1
2.130e+0, 1.705e-1
2.140e+0, 1.712e-1
2.150e+0, 1.719e-1
2.160e+0, 1.725e-1
2.170e+0, 1.732e-1
2.180e+0, 1.739e-1
2.190e+0, 1.746e-1
2.200e+0, 1.753e-1
2.210e+0, 1.760e-1
2.220e+0, 1.766e-1
2.230e+0, 1.773e-1
2.240e+0, 1.780e-1
2.250e+0, 1.787e-1
2.260e+0, 1.793e-1
2.270e+0, 1.800e-1
2.280e+0, 1.807e-1
2.290e+0, 1.814e-1
2.300e+0, 1.821e-1
2.310e+0, 1.827e-1
2.320e+0, 1.834e-1
2.330e+0, 1.841e-1
2.340e+0, 1.847e-1
2.350e+0, 1.854e-1
2.360e+0, 1.861e-1
2.370e+0, 1.867e-1
2.380e+0, 1.874e-1
2.390e+0, 1.881e-1
2.400e+0, 1.887e-1
2.410e+0, 1.894e-1
2.420e+0, 1.901e-1
2.430e+0, 1.907e-1
2.440e+0, 1.914e-1
2.450e+0, 1.921e-1
2.460e+0, 1.927e-1
2.470e+0, 1.934e-1
2.480e+0, 1.941e-1
2.490e+0, 1.947e-1
2.500e+0, 1.954e-1
2.510e+0, 1.960e-1
2.520e+0, 1.967e-1
2.530e+0, 1.974e-1
2.540e+0, 1.980e-1
2.550e+0, 1.987e-1
2.560e+0, 1.993e-1
2.570e+0, 2.000e-1
2.580e+0, 2.007e-1
2.590e+0, 2.013e-1
2.600e+0, 2.020e-1
2.610e+0, 2.026e-1
2.620e+0, 2.033e-1
2.630e+0, 2.039e-1
2.640e+0, 2.046e-1
2.650e+0, 2.052e-1
2.660e+0, 2.059e-1
2.670e+0, 2.065e-1
2.680e+0, 2.072e-1
2.690e+0, 2.078e-1
2.700e+0, 2.085e-1
2.710e+0, 2.091e-1
2.720e+0, 2.098e-1
2.730e+0, 2.104e-1
2.740e+0, 2.111e-1
2.750e+0, 2.117e-1
2.760e+0, 2.124e-1
2.770e+0, 2.130e-1
2.780e+0, 2.137e-1
2.790e+0, 2.143e-1
2.800e+0, 2.149e-1
2.810e+0, 2.156e-1
2.820e+0, 2.162e-1
2.830e+0, 2.169e-1
2.840e+0, 2.175e-1
2.850e+0, 2.181e-1
2.860e+0, 2.188e-1
2.870e+0, 2.194e-1
2.880e+0, 2.201e-1
2.890e+0, 2.207e-1
2.900e+0, 2.213e-1
2.910e+0, 2.220e-1
2.920e+0, 2.226e-1
2.930e+0, 2.233e-1
2.940e+0, 2.239e-1
2.950e+0, 2.245e-1
2.960e+0, 2.252e-1
2.970e+0, 2.258e-1
2.980e+0, 2.264e-1
2.990e+0, 2.271e-1
3.000e+0, 2.277e-1
3.010e+0, 2.283e-1
3.020e+0, 2.290e-1
3.030e+0, 2.296e-1
3.040e+0, 2.303e-1
3.050e+0, 2.309e-1
3.060e+0, 2.315e-1
3.070e+0, 2.321e-1
3.080e+0, 2.328e-1
3.090e+0, 2.334e-1
3.100e+0, 2.340e-1
3.110e+0, 2.347e-1
3.120e+0, 2.353e-1
3.130e+0, 2.359e-1
3.140e+0, 2.365e-1
3.150e+0, 2.372e-1
3.160e+0, 2.378e-1
3.170e+0, 2.384e-1
3.180e+0, 2.391e-1
3.190e+0, 2.397e-1
3.200e+0, 2.403e-1
3.210e+0, 2.409e-1
3.220e+0, 2.416e-1
3.230e+0, 2.422e-1
3.240e+0, 2.428e-1
3.250e+0, 2.434e-1
3.260e+0, 2.441e-1
3.270e+0, 2.447e-1
3.280e+0, 2.453e-1
3.290e+0, 2.459e-1
3.300e+0, 2.466e-1
3.310e+0, 2.472e-1
3.320e+0, 2.478e-1
3.330e+0, 2.484e-1
3.340e+0, 2.490e-1
3.350e+0, 2.497e-1
3.360e+0, 2.503e-1
3.370e+0, 2.509e-1
3.380e+0, 2.515e-1
3.390e+0, 2.522e-1
3.400e+0, 2.528e-1
3.410e+0, 2.534e-1
3.420e+0, 2.540e-1
3.430e+0, 2.546e-1
3.440e+0, 2.553e-1
3.450e+0, 2.559e-1
3.460e+0, 2.565e-1
3.470e+0, 2.571e-1
3.480e+0, 2.577e-1
3.490e+0, 2.583e-1
3.500e+0, 2.590e-1
3.510e+0, 2.596e-1
3.520e+0, 2.602e-1
3.530e+0, 2.608e-1
3.540e+0, 2.614e-1
3.550e+0, 2.620e-1
3.560e+0, 2.627e-1
3.570e+0, 2.633e-1
3.580e+0, 2.639e-1
3.590e+0, 2.645e-1
3.600e+0, 2.651e-1
3.610e+0, 2.657e-1
3.620e+0, 2.663e-1
3.630e+0, 2.669e-1
3.640e+0, 2.675e-1
3.650e+0, 2.682e-1
3.660e+0, 2.688e-1
3.670e+0, 2.694e-1
3.680e+0, 2.700e-1
3.690e+0, 2.706e-1
3.700e+0, 2.712e-1
3.710e+0, 2.718e-1
3.720e+0, 2.724e-1
3.730e+0, 2.730e-1
3.740e+0, 2.737e-1
3.750e+0, 2.743e-1
3.760e+0, 2.749e-1
3.770e+0, 2.755e-1
3.780e+0, 2.761e-1
3.790e+0, 2.767e-1
3.800e+0, 2.773e-1
3.810e+0, 2.779e-1
3.820e+0, 2.785e-1
3.830e+0, 2.791e-1
3.840e+0, 2.797e-1
3.850e+0, 2.803e-1
3.860e+0, 2.809e-1
3.870e+0, 2.815e-1
3.880e+0, 2.821e-1
3.890e+0, 2.827e-1
3.900e+0, 2.833e-1
3.910e+0, 2.839e-1
3.920e+0, 2.845e-1
3.930e+0, 2.851e-1
3.940e+0, 2.858e-1
3.950e+0, 2.864e-1
3.960e+0, 2.870e-1
3.970e+0, 2.876e-1
3.980e+0, 2.882e-1
3.990e+0, 2.888e-1
4.000e+0, 2.894e-1
4.010e+0, 2.900e-1
4.020e+0, 2.906e-1
4.030e+0, 2.912e-1
4.040e+0, 2.918e-1
4.050e+0, 2.924e-1
4.060e+0, 2.930e-1
4.070e+0, 2.936e-1
4.080e+0, 2.942e-1
4.090e+0, 2.948e-1
4.100e+0, 2.953e-1
4.110e+0, 2.959e-1
4.120e+0, 2.965e-1
4.130e+0, 2.971e-1
4.140e+0, 2.977e-1
4.150e+0, 2.983e-1
4.160e+0, 2.989e-1
4.170e+0, 2.995e-1
4.180e+0, 3.001e-1
4.190e+0, 3.007e-1
4.200e+0, 3.013e-1
4.210e+0, 3.019e-1
4.220e+0, 3.025e-1
4.230e+0, 3.031e-1
4.240e+0, 3.037e-1
4.250e+0, 3.043e-1
4.260e+0, 3.049e-1
4.270e+0, 3.054e-1
4.280e+0, 3.060e-1
4.290e+0, 3.066e-1
4.300e+0, 3.072e-1
4.310e+0, 3.078e-1
4.320e+0, 3.084e-1
4.330e+0, 3.090e-1
4.340e+0, 3.096e-1
4.350e+0, 3.102e-1
4.360e+0, 3.108e-1
4.370e+0, 3.113e-1
4.380e+0, 3.119e-1
4.390e+0, 3.125e-1
4.400e+0, 3.131e-1
4.410e+0, 3.137e-1
4.420e+0, 3.143e-1
4.430e+0, 3.149e-1
4.440e+0, 3.155e-1
4.450e+0, 3.160e-1
4.460e+0, 3.166e-1
4.470e+0, 3.172e-1
4.480e+0, 3.178e-1
4.490e+0, 3.184e-1
4.500e+0, 3.190e-1
4.510e+0, 3.196e-1
4.520e+0, 3.202e-1
4.530e+0, 3.207e-1
4.540e+0, 3.213e-1
4.550e+0, 3.219e-1
4.560e+0, 3.225e-1
4.570e+0, 3.231e-1
4.580e+0, 3.237e-1
4.590e+0, 3.242e-1
4.600e+0, 3.248e-1
4.610e+0, 3.254e-1
4.620e+0, 3.260e-1
4.630e+0, 3.266e-1
4.640e+0, 3.271e-1
4.650e+0, 3.277e-1
4.660e+0, 3.283e-1
4.670e+0, 3.289e-1
4.680e+0, 3.294e-1
4.690e+0, 3.300e-1
4.700e+0, 3.306e-1
4.710e+0, 3.312e-1
4.720e+0, 3.318e-1
4.730e+0, 3.323e-1
4.740e+0, 3.329e-1
4.750e+0, 3.335e-1
4.760e+0, 3.341e-1
4.770e+0, 3.346e-1
4.780e+0, 3.352e-1
4.790e+0, 3.358e-1
4.800e+0, 3.364e-1
4.810e+0, 3.369e-1
4.820e+0, 3.375e-1
4.830e+0, 3.381e-1
4.840e+0, 3.387e-1
4.850e+0, 3.393e-1
4.860e+0, 3.398e-1
4.870e+0, 3.404e-1
4.880e+0, 3.410e-1
4.890e+0, 3.415e-1
4.900e+0, 3.421e-1
4.910e+0, 3.427e-1
4.920e+0, 3.432e-1
4.930e+0, 3.438e-1
4.940e+0, 3.444e-1
4.950e+0, 3.450e-1
4.960e+0, 3.455e-1
4.970e+0, 3.461e-1
4.980e+0, 3.467e-1
4.990e+0, 3.472e-1
5.000e+0, 3.478e-1
5.010e+0, 3.484e-1
5.020e+0, 3.490e-1
5.030e+0, 3.495e-1
5.040e+0, 3.501e-1
5.050e+0, 3.507e-1
5.060e+0, 3.512e-1
5.070e+0, 3.518e-1
5.080e+0, 3.524e-1
5.090e+0, 3.529e-1
5.100e+0, 3.535e-1
5.110e+0, 3.541e-1
5.120e+0, 3.546e-1
5.130e+0, 3.552e-1
5.140e+0, 3.558e-1
5.150e+0, 3.563e-1
5.160e+0, 3.569e-1
5.170e+0, 3.574e-1
5.180e+0, 3.580e-1
5.190e+0, 3.586e-1
5.200e+0, 3.591e-1
5.210e+0, 3.597e-1
5.220e+0, 3.602e-1
5.230e+0, 3.608e-1
5.240e+0, 3.614e-1
5.250e+0, 3.619e-1
5.260e+0, 3.625e-1
5.270e+0, 3.630e-1
5.280e+0, 3.636e-1
5.290e+0, 3.642e-1
5.300e+0, 3.647e-1
5.310e+0, 3.653e-1
5.320e+0, 3.658e-1
5.330e+0, 3.664e-1
5.340e+0, 3.670e-1
5.350e+0, 3.675e-1
5.360e+0, 3.681e-1
5.370e+0, 3.686e-1
5.380e+0, 3.692e-1
5.390e+0, 3.697e-1
5.400e+0, 3.703e-1
5.410e+0, 3.709e-1
5.420e+0, 3.714e-1
5.430e+0, 3.720e-1
5.440e+0, 3.725e-1
5.450e+0, 3.731e-1
5.460e+0, 3.736e-1
5.470e+0, 3.742e-1
5.480e+0, 3.747e-1
5.490e+0, 3.753e-1
5.500e+0, 3.758e-1
5.510e+0, 3.764e-1
5.520e+0, 3.769e-1
5.530e+0, 3.775e-1
5.540e+0, 3.780e-1
5.550e+0, 3.786e-1
5.560e+0, 3.791e-1
5.570e+0, 3.797e-1
5.580e+0, 3.802e-1
5.590e+0, 3.808e-1
5.600e+0, 3.813e-1
5.610e+0, 3.819e-1
5.620e+0, 3.824e-1
5.630e+0, 3.830e-1
5.640e+0, 3.835e-1
5.650e+0, 3.841e-1
5.660e+0, 3.846e-1
5.670e+0, 3.852e-1
5.680e+0, 3.857e-1
5.690e+0, 3.863e-1
5.700e+0, 3.868e-1
5.710e+0, 3.874e-1
5.720e+0, 3.879e-1
5.730e+0, 3.884e-1
5.740e+0, 3.890e-1
5.750e+0, 3.895e-1
5.760e+0, 3.901e-1
5.770e+0, 3.906e-1
5.780e+0, 3.912e-1
5.790e+0, 3.917e-1
5.800e+0, 3.922e-1
5.810e+0, 3.928e-1
5.820e+0, 3.933e-1
5.830e+0, 3.939e-1
5.840e+0, 3.944e-1
5.850e+0, 3.949e-1
5.860e+0, 3.955e-1
5.870e+0, 3.960e-1
5.880e+0, 3.965e-1
5.890e+0, 3.971e-1
5.900e+0, 3.976e-1
5.910e+0, 3.982e-1
5.920e+0, 3.987e-1
5.930e+0, 3.992e-1
5.940e+0, 3.998e-1
5.950e+0, 4.003e-1
5.960e+0, 4.008e-1
5.970e+0, 4.014e-1
5.980e+0, 4.019e-1
5.990e+0, 4.025e-1
6.000e+0, 4.030e-1
6.010e+0, 4.035e-1
6.020e+0, 4.041e-1
6.030e+0, 4.046e-1
6.040e+0, 4.051e-1
6.050e+0, 4.056e-1
6.060e+0, 4.062e-1
6.070e+0, 4.067e-1
6.080e+0, 4.072e-1
6.090e+0, 4.077e-1
6.100e+0, 4.083e-1
6.110e+0, 4.088e-1
6.120e+0, 4.093e-1
6.130e+0, 4.099e-1
6.140e+0, 4.104e-1
6.150e+0, 4.109e-1
6.160e+0, 4.115e-1
6.170e+0, 4.120e-1
6.180e+0, 4.125e-1
6.190e+0, 4.130e-1
6.200e+0, 4.136e-1
6.210e+0, 4.141e-1
6.220e+0, 4.146e-1
6.230e+0, 4.151e-1
6.240e+0, 4.156e-1
6.250e+0, 4.162e-1
6.260e+0, 4.167e-1
6.270e+0, 4.172e-1
6.280e+0, 4.177e-1
6.290e+0, 4.183e-1
6.300e+0, 4.188e-1
6.310e+0, 4.193e-1
6.320e+0, 4.198e-1
6.330e+0, 4.203e-1
6.340e+0, 4.209e-1
6.350e+0, 4.214e-1
6.360e+0, 4.219e-1
6.370e+0, 4.224e-1
6.380e+0, 4.229e-1
6.390e+0, 4.234e-1
6.400e+0, 4.239e-1
6.410e+0, 4.245e-1
6.420e+0, 4.250e-1
6.430e+0, 4.255e-1
6.440e+0, 4.260e-1
6.450e+0, 4.265e-1
6.460e+0, 4.270e-1
6.470e+0, 4.275e-1
6.480e+0, 4.281e-1
6.490e+0, 4.286e-1
6.500e+0, 4.291e-1
6.510e+0, 4.296e-1
6.520e+0, 4.301e-1
6.530e+0, 4.306e-1
6.540e+0, 4.311e-1
6.550e+0, 4.316e-1
6.560e+0, 4.322e-1
6.570e+0, 4.327e-1
6.580e+0, 4.332e-1
6.590e+0, 4.337e-1
6.600e+0, 4.342e-1
6.610e+0, 4.347e-1
6.620e+0, 4.352e-1
6.630e+0, 4.357e-1
6.640e+0, 4.362e-1
6.650e+0, 4.367e-1
6.660e+0, 4.372e-1
6.670e+0, 4.377e-1
6.680e+0, 4.382e-1
6.690e+0, 4.387e-1
6.700e+0, 4.392e-1
6.710e+0, 4.397e-1
6.720e+0, 4.402e-1
6.730e+0, 4.407e-1
6.740e+0, 4.413e-1
6.750e+0, 4.418e-1
6.760e+0, 4.423e-1
6.770e+0, 4.428e-1
6.780e+0, 4.433e-1
6.790e+0, 4.438e-1
6.800e+0, 4.443e-1
6.810e+0, 4.448e-1
6.820e+0, 4.453e-1
6.830e+0, 4.458e-1
6.840e+0, 4.463e-1
6.850e+0, 4.468e-1
6.860e+0, 4.473e-1
6.870e+0, 4.478e-1
6.880e+0, 4.483e-1
6.890e+0, 4.488e-1
6.900e+0, 4.493e-1
6.910e+0, 4.498e-1
6.920e+0, 4.503e-1
6.930e+0, 4.508e-1
6.940e+0, 4.513e-1
6.950e+0, 4.517e-1
6.960e+0, 4.522e-1
6.970e+0, 4.527e-1
6.980e+0, 4.532e-1
6.990e+0, 4.537e-1
7.000e+0, 4.542e-1
7.010e+0, 4.547e-1
7.020e+0, 4.552e-1
7.030e+0, 4.557e-1
7.040e+0, 4.562e-1
7.050e+0, 4.567e-1
7.060e+0, 4.572e-1
7.070e+0, 4.577e-1
7.080e+0, 4.582e-1
7.090e+0, 4.587e-1
7.100e+0, 4.592e-1
7.110e+0, 4.597e-1
7.120e+0, 4.602e-1
7.130e+0, 4.606e-1
7.140e+0, 4.611e-1
7.150e+0, 4.616e-1
7.160e+0, 4.621e-1
7.170e+0, 4.626e-1
7.180e+0, 4.631e-1
7.190e+0, 4.636e-1
7.200e+0, 4.641e-1
7.210e+0, 4.646e-1
7.220e+0, 4.651e-1
7.230e+0, 4.656e-1
7.240e+0, 4.661e-1
7.250e+0, 4.666e-1
7.260e+0, 4.670e-1
7.270e+0, 4.675e-1
7.280e+0, 4.680e-1
7.290e+0, 4.685e-1
7.300e+0, 4.690e-1
7.310e+0, 4.695e-1
7.320e+0, 4.700e-1
7.330e+0, 4.705e-1
7.340e+0, 4.710e-1
7.350e+0, 4.714e-1
7.360e+0, 4.719e-1
7.370e+0, 4.724e-1
7.380e+0, 4.729e-1
7.390e+0, 4.734e-1
7.400e+0, 4.739e-1
7.410e+0, 4.744e-1
7.420e+0, 4.749e-1
7.430e+0, 4.754e-1
7.440e+0, 4.759e-1
7.450e+0, 4.764e-1
7.460e+0, 4.769e-1
7.470e+0, 4.774e-1
7.480e+0, 4.779e-1
7.490e+0, 4.783e-1
7.500e+0, 4.788e-1
7.510e+0, 4.793e-1
7.520e+0, 4.798e-1
7.530e+0, 4.803e-1
7.540e+0, 4.808e-1
7.550e+0, 4.813e-1
7.560e+0, 4.818e-1
7.570e+0, 4.823e-1
7.580e+0, 4.828e-1
7.590e+0, 4.833e-1
7.600e+0, 4.838e-1
7.610e+0, 4.842e-1
7.620e+0, 4.847e-1
7.630e+0, 4.852e-1
7.640e+0, 4.857e-1
7.650e+0, 4.862e-1
7.660e+0, 4.867e-1
7.670e+0, 4.872e-1
7.680e+0, 4.877e-1
7.690e+0, 4.882e-1
7.700e+0, 4.887e-1
7.710e+0, 4.892e-1
7.720e+0, 4.897e-1
7.730e+0, 4.902e-1
7.740e+0, 4.907e-1
7.750e+0, 4.911e-1
7.760e+0, 4.916e-1
7.770e+0, 4.921e-1
7.780e+0, 4.926e-1
7.790e+0, 4.931e-1
7.800e+0, 4.936e-1
7.810e+0, 4.941e-1
7.820e+0, 4.946e-1
7.830e+0, 4.951e-1
7.840e+0, 4.956e-1
7.850e+0, 4.961e-1
7.860e+0, 4.966e-1
7.870e+0, 4.971e-1
7.880e+0, 4.976e-1
7.890e+0, 4.981e-1
7.900e+0, 4.986e-1
7.910e+0, 4.991e-1
7.920e+0, 4.996e-1
7.930e+0, 5.001e-1
7.940e+0, 5.006e-1
7.950e+0, 5.011e-1
7.960e+0, 5.016e-1
7.970e+0, 5.021e-1
7.980e+0, 5.026e-1
7.990e+0, 5.031e-1
8.000e+0, 5.036e-1
8.010e+0, 5.041e-1
8.020e+0, 5.046e-1
8.030e+0, 5.051e-1
8.040e+0, 5.056e-1
8.050e+0, 5.061e-1
8.060e+0, 5.066e-1
8.070e+0, 5.071e-1
8.080e+0, 5.076e-1
8.090e+0, 5.081e-1
8.100e+0, 5.086e-1
8.110e+0, 5.091e-1
8.120e+0, 5.096e-1
8.130e+0, 5.101e-1
8.140e+0, 5.106e-1
8.150e+0, 5.111e-1
8.160e+0, 5.117e-1
8.170e+0, 5.122e-1
8.180e+0, 5.127e-1
8.190e+0, 5.132e-1
8.200e+0, 5.137e-1
8.210e+0, 5.142e-1
8.220e+0, 5.147e-1
8.230e+0, 5.152e-1
8.240e+0, 5.157e-1
8.250e+0, 5.162e-1
8.260e+0, 5.167e-1
8.270e+0, 5.172e-1
8.280e+0, 5.177e-1
8.290e+0, 5.182e-1
8.300e+0, 5.188e-1
8.310e+0, 5.193e-1
8.320e+0, 5.198e-1
8.330e+0, 5.203e-1
8.340e+0, 5.208e-1
8.350e+0, 5.213e-1
8.360e+0, 5.218e-1
8.370e+0, 5.223e-1
8.380e+0, 5.229e-1
8.390e+0, 5.234e-1
8.400e+0, 5.239e-1
8.410e+0, 5.244e-1
8.420e+0, 5.249e-1
8.430e+0, 5.254e-1
8.440e+0, 5.260e-1
8.450e+0, 5.265e-1
8.460e+0, 5.270e-1
8.470e+0, 5.275e-1
8.480e+0, 5.280e-1
8.490e+0, 5.285e-1
8.500e+0, 5.291e-1
8.510e+0, 5.296e-1
8.520e+0, 5.301e-1
8.530e+0, 5.306e-1
8.540e+0, 5.311e-1
8.550e+0, 5.316e-1
8.560e+0, 5.322e-1
8.570e+0, 5.327e-1
8.580e+0, 5.332e-1
8.590e+0, 5.337e-1
8.600e+0, 5.343e-1
8.610e+0, 5.348e-1
8.620e+0, 5.353e-1
8.630e+0, 5.358e-1
8.640e+0, 5.363e-1
8.650e+0, 5.369e-1
8.660e+0, 5.374e-1
8.670e+0, 5.379e-1
8.680e+0, 5.384e-1
8.690e+0, 5.390e-1
8.700e+0, 5.395e-1
8.710e+0, 5.400e-1
8.720e+0, 5.406e-1
8.730e+0, 5.411e-1
8.740e+0, 5.416e-1
8.750e+0, 5.421e-1
8.760e+0, 5.427e-1
8.770e+0, 5.432e-1
8.780e+0, 5.437e-1
8.790e+0, 5.443e-1
8.800e+0, 5.448e-1
8.810e+0, 5.453e-1
8.820e+0, 5.459e-1
8.830e+0, 5.464e-1
8.840e+0, 5.469e-1
8.850e+0, 5.474e-1
8.860e+0, 5.480e-1
8.870e+0, 5.485e-1
8.880e+0, 5.490e-1
8.890e+0, 5.496e-1
8.900e+0, 5.501e-1
8.910e+0, 5.506e-1
8.920e+0, 5.512e-1
8.930e+0, 5.517e-1
8.940e+0, 5.523e-1
8.950e+0, 5.528e-1
8.960e+0, 5.533e-1
8.970e+0, 5.539e-1
8.980e+0, 5.544e-1
8.990e+0, 5.549e-1
9.000e+0, 5.555e-1
9.010e+0, 5.560e-1
9.020e+0, 5.566e-1
9.030e+0, 5.571e-1
9.040e+0, 5.577e-1
9.050e+0, 5.582e-1
9.060e+0, 5.587e-1
9.070e+0, 5.593e-1
9.080e+0, 5.598e-1
9.090e+0, 5.604e-1
9.100e+0, 5.609e-1
9.110e+0, 5.615e-1
9.120e+0, 5.620e-1
9.130e+0, 5.626e-1
9.140e+0, 5.631e-1
9.150e+0, 5.636e-1
9.160e+0, 5.642e-1
9.170e+0, 5.647e-1
9.180e+0, 5.653e-1
9.190e+0, 5.658e-1
9.200e+0, 5.664e-1
9.210e+0, 5.669e-1
9.220e+0, 5.675e-1
9.230e+0, 5.680e-1
9.240e+0, 5.686e-1
9.250e+0, 5.691e-1
9.260e+0, 5.697e-1
9.270e+0, 5.703e-1
9.280e+0, 5.708e-1
9.290e+0, 5.714e-1
9.300e+0, 5.719e-1
9.310e+0, 5.725e-1
9.320e+0, 5.730e-1
9.330e+0, 5.736e-1
9.340e+0, 5.741e-1
9.350e+0, 5.747e-1
9.360e+0, 5.753e-1
9.370e+0, 5.758e-1
9.380e+0, 5.764e-1
9.390e+0, 5.769e-1
9.400e+0, 5.775e-1
9.410e+0, 5.781e-1
9.420e+0, 5.786e-1
9.430e+0, 5.792e-1
9.440e+0, 5.797e-1
9.450e+0, 5.803e-1
9.460e+0, 5.809e-1
9.470e+0, 5.814e-1
9.480e+0, 5.820e-1
9.490e+0, 5.825e-1
9.500e+0, 5.831e-1
9.510e+0, 5.837e-1
9.520e+0, 5.843e-1
9.530e+0, 5.848e-1
9.540e+0, 5.854e-1
9.550e+0, 5.859e-1
9.560e+0, 5.865e-1
9.570e+0, 5.871e-1
9.580e+0, 5.877e-1
9.590e+0, 5.882e-1
9.600e+0, 5.888e-1
9.610e+0, 5.894e-1
9.620e+0, 5.900e-1
9.630e+0, 5.905e-1
9.640e+0, 5.911e-1
9.650e+0, 5.917e-1
9.660e+0, 5.922e-1
9.670e+0, 5.928e-1
9.680e+0, 5.934e-1
9.690e+0, 5.940e-1
9.700e+0, 5.945e-1
9.710e+0, 5.951e-1
9.720e+0, 5.957e-1
9.730e+0, 5.963e-1
9.740e+0, 5.968e-1
9.750e+0, 5.974e-1
9.760e+0, 5.980e-1
9.770e+0, 5.986e-1
9.780e+0, 5.992e-1
9.790e+0, 5.997e-1
9.800e+0, 6.003e-1
9.810e+0, 6.009e-1
9.820e+0, 6.015e-1
9.830e+0, 6.021e-1
9.840e+0, 6.027e-1
9.850e+0, 6.032e-1
9.860e+0, 6.038e-1
9.870e+0, 6.044e-1
9.880e+0, 6.050e-1
9.890e+0, 6.056e-1
9.900e+0, 6.062e-1
9.910e+0, 6.068e-1
9.920e+0, 6.074e-1
9.930e+0, 6.079e-1
9.940e+0, 6.085e-1
9.950e+0, 6.091e-1
9.960e+0, 6.097e-1
9.970e+0, 6.103e-1
9.980e+0, 6.109e-1
9.990e+0, 6.115e-1
1.000e+1, 6.121e-1
1.001e+1, 6.127e-1
1.002e+1, 6.133e-1
1.003e+1, 6.138e-1
1.004e+1, 6.145e-1
1.005e+1, 6.150e-1
1.006e+1, 6.156e-1
1.007e+1, 6.162e-1
1.008e+1, 6.168e-1
1.009e+1, 6.174e-1
1.010e+1, 6.180e-1
1.011e+1, 6.186e-1
1.012e+1, 6.192e-1
1.013e+1, 6.198e-1
1.014e+1, 6.204e-1
1.015e+1, 6.210e-1
1.016e+1, 6.216e-1
1.017e+1, 6.222e-1
1.018e+1, 6.229e-1
1.019e+1, 6.235e-1
1.020e+1, 6.241e-1
1.021e+1, 6.247e-1
1.022e+1, 6.253e-1
1.023e+1, 6.259e-1
1.024e+1, 6.265e-1
1.025e+1, 6.271e-1
1.026e+1, 6.277e-1
1.027e+1, 6.283e-1
1.028e+1, 6.289e-1
1.029e+1, 6.295e-1
1.030e+1, 6.301e-1
1.031e+1, 6.307e-1
1.032e+1, 6.314e-1
1.033e+1, 6.320e-1
1.034e+1, 6.326e-1
1.035e+1, 6.332e-1
1.036e+1, 6.338e-1
1.037e+1, 6.344e-1
1.038e+1, 6.350e-1
1.039e+1, 6.357e-1
1.040e+1, 6.363e-1
1.041e+1, 6.369e-1
1.042e+1, 6.375e-1
1.043e+1, 6.381e-1
1.044e+1, 6.388e-1
1.045e+1, 6.394e-1
1.046e+1, 6.400e-1
1.047e+1, 6.406e-1
1.048e+1, 6.412e-1
1.049e+1, 6.418e-1
1.050e+1, 6.425e-1
1.051e+1, 6.431e-1
1.052e+1, 6.437e-1
1.053e+1, 6.443e-1
1.054e+1, 6.450e-1
1.055e+1, 6.456e-1
1.056e+1, 6.462e-1
1.057e+1, 6.469e-1
1.058e+1, 6.475e-1
1.059e+1, 6.481e-1
1.060e+1, 6.487e-1
1.061e+1, 6.494e-1
1.062e+1, 6.500e-1
1.063e+1, 6.506e-1
1.064e+1, 6.513e-1
1.065e+1, 6.519e-1
1.066e+1, 6.525e-1
1.067e+1, 6.532e-1
1.068e+1, 6.538e-1
1.069e+1, 6.544e-1
1.070e+1, 6.551e-1
1.071e+1, 6.557e-1
1.072e+1, 6.564e-1
1.073e+1, 6.570e-1
1.074e+1, 6.576e-1
1.075e+1, 6.583e-1
1.076e+1, 6.589e-1
1.077e+1, 6.595e-1
1.078e+1, 6.602e-1
1.079e+1, 6.608e-1
1.080e+1, 6.615e-1
1.081e+1, 6.621e-1
1.082e+1, 6.628e-1
1.083e+1, 6.634e-1
1.084e+1, 6.640e-1
1.085e+1, 6.647e-1
1.086e+1, 6.653e-1
1.087e+1, 6.660e-1
1.088e+1, 6.666e-1
1.089e+1, 6.673e-1
1.090e+1, 6.679e-1
1.091e+1, 6.686e-1
1.092e+1, 6.692e-1
1.093e+1, 6.699e-1
1.094e+1, 6.705e-1
1.095e+1, 6.712e-1
1.096e+1, 6.718e-1
1.097e+1, 6.725e-1
1.098e+1, 6.731e-1
1.099e+1, 6.738e-1
1.100e+1, 6.744e-1
1.101e+1, 6.751e-1
1.102e+1, 6.758e-1
1.103e+1, 6.764e-1
1.104e+1, 6.771e-1
1.105e+1, 6.777e-1
1.106e+1, 6.784e-1
1.107e+1, 6.790e-1
1.108e+1, 6.797e-1
1.109e+1, 6.804e-1
1.110e+1, 6.810e-1
1.111e+1, 6.817e-1
1.112e+1, 6.824e-1
1.113e+1, 6.830e-1
1.114e+1, 6.837e-1
1.115e+1, 6.843e-1
1.116e+1, 6.850e-1
1.117e+1, 6.857e-1
1.118e+1, 6.864e-1
1.119e+1, 6.870e-1
1.120e+1, 6.877e-1
1.121e+1, 6.884e-1
1.122e+1, 6.890e-1
1.123e+1, 6.897e-1
1.124e+1, 6.904e-1
1.125e+1, 6.910e-1
1.126e+1, 6.917e-1
1.127e+1, 6.924e-1
1.128e+1, 6.930e-1
1.129e+1, 6.937e-1
1.130e+1, 6.944e-1
1.131e+1, 6.951e-1
1.132e+1, 6.957e-1
1.133e+1, 6.964e-1
1.134e+1, 6.971e-1
1.135e+1, 6.978e-1
1.136e+1, 6.985e-1
1.137e+1, 6.991e-1
1.138e+1, 6.998e-1
1.139e+1, 7.005e-1
1.140e+1, 7.012e-1
1.141e+1, 7.018e-1
1.142e+1, 7.025e-1
1.143e+1, 7.032e-1
1.144e+1, 7.039e-1
1.145e+1, 7.046e-1
1.146e+1, 7.052e-1
1.147e+1, 7.059e-1
1.148e+1, 7.066e-1
1.149e+1, 7.073e-1
1.150e+1, 7.080e-1
1.151e+1, 7.087e-1
1.152e+1, 7.094e-1
1.153e+1, 7.100e-1
1.154e+1, 7.107e-1
1.155e+1, 7.114e-1
1.156e+1, 7.121e-1
1.157e+1, 7.128e-1
1.158e+1, 7.135e-1
1.159e+1, 7.142e-1
1.160e+1, 7.149e-1
1.161e+1, 7.156e-1
1.162e+1, 7.163e-1
1.163e+1, 7.170e-1
1.164e+1, 7.177e-1
1.165e+1, 7.184e-1
1.166e+1, 7.191e-1
1.167e+1, 7.197e-1
1.168e+1, 7.204e-1
1.169e+1, 7.211e-1
1.170e+1, 7.218e-1
1.171e+1, 7.225e-1
1.172e+1, 7.232e-1
1.173e+1, 7.239e-1
1.174e+1, 7.246e-1
1.175e+1, 7.253e-1
1.176e+1, 7.260e-1
1.177e+1, 7.267e-1
1.178e+1, 7.274e-1
1.179e+1, 7.281e-1
1.180e+1, 7.288e-1
1.181e+1, 7.295e-1
1.182e+1, 7.302e-1
1.183e+1, 7.309e-1
1.184e+1, 7.317e-1
1.185e+1, 7.324e-1
1.186e+1, 7.331e-1
1.187e+1, 7.338e-1
1.188e+1, 7.345e-1
1.189e+1, 7.352e-1
1.190e+1, 7.359e-1
1.191e+1, 7.366e-1
1.192e+1, 7.373e-1
1.193e+1, 7.380e-1
1.194e+1, 7.387e-1
1.195e+1, 7.394e-1
1.196e+1, 7.402e-1
1.197e+1, 7.409e-1
1.198e+1, 7.416e-1
1.199e+1, 7.423e-1
1.200e+1, 7.430e-1
1.201e+1, 7.437e-1
1.202e+1, 7.444e-1
1.203e+1, 7.452e-1
1.204e+1, 7.459e-1
1.205e+1, 7.466e-1
1.206e+1, 7.473e-1
1.207e+1, 7.480e-1
1.208e+1, 7.488e-1
1.209e+1, 7.495e-1
1.210e+1, 7.502e-1
1.211e+1, 7.509e-1
1.212e+1, 7.516e-1
1.213e+1, 7.523e-1
1.214e+1, 7.531e-1
1.215e+1, 7.538e-1
1.216e+1, 7.545e-1
1.217e+1, 7.552e-1
1.218e+1, 7.560e-1
1.219e+1, 7.567e-1
1.220e+1, 7.574e-1
1.221e+1, 7.581e-1
1.222e+1, 7.589e-1
1.223e+1, 7.596e-1
1.224e+1, 7.603e-1
1.225e+1, 7.610e-1
1.226e+1, 7.618e-1
1.227e+1, 7.625e-1
1.228e+1, 7.632e-1
1.229e+1, 7.639e-1
1.230e+1, 7.647e-1
1.231e+1, 7.654e-1
1.232e+1, 7.661e-1
1.233e+1, 7.669e-1
1.234e+1, 7.676e-1
1.235e+1, 7.683e-1
1.236e+1, 7.690e-1
1.237e+1, 7.698e-1
1.238e+1, 7.705e-1
1.239e+1, 7.712e-1
1.240e+1, 7.720e-1
1.241e+1, 7.727e-1
1.242e+1, 7.734e-1
1.243e+1, 7.742e-1
1.244e+1, 7.749e-1
1.245e+1, 7.756e-1
1.246e+1, 7.764e-1
1.247e+1, 7.771e-1
1.248e+1, 7.778e-1
1.249e+1, 7.786e-1
1.250e+1, 7.793e-1
1.251e+1, 7.800e-1
1.252e+1, 7.808e-1
1.253e+1, 7.815e-1
1.254e+1, 7.823e-1
1.255e+1, 7.830e-1
1.256e+1, 7.837e-1
1.257e+1, 7.845e-1
1.258e+1, 7.852e-1
1.259e+1, 7.859e-1
1.260e+1, 7.867e-1
1.261e+1, 7.874e-1
1.262e+1, 7.882e-1
1.263e+1, 7.889e-1
1.264e+1, 7.896e-1
1.265e+1, 7.904e-1
1.266e+1, 7.911e-1
1.267e+1, 7.919e-1
1.268e+1, 7.926e-1
1.269e+1, 7.933e-1
1.270e+1, 7.941e-1
1.271e+1, 7.948e-1
1.272e+1, 7.956e-1
1.273e+1, 7.963e-1
1.274e+1, 7.971e-1
1.275e+1, 7.978e-1
1.276e+1, 7.986e-1
1.277e+1, 7.993e-1
1.278e+1, 8.000e-1
1.279e+1, 8.008e-1
1.280e+1, 8.015e-1
1.281e+1, 8.023e-1
1.282e+1, 8.030e-1
1.283e+1, 8.038e-1
1.284e+1, 8.045e-1
1.285e+1, 8.053e-1
1.286e+1, 8.060e-1
1.287e+1, 8.068e-1
1.288e+1, 8.075e-1
1.289e+1, 8.083e-1
1.290e+1, 8.090e-1
1.291e+1, 8.097e-1
1.292e+1, 8.105e-1
1.293e+1, 8.112e-1
1.294e+1, 8.120e-1
1.295e+1, 8.127e-1
1.296e+1, 8.135e-1
1.297e+1, 8.142e-1
1.298e+1, 8.150e-1
1.299e+1, 8.157e-1
1.300e+1, 8.165e-1
1.301e+1, 8.172e-1
1.302e+1, 8.180e-1
1.303e+1, 8.187e-1
1.304e+1, 8.195e-1
1.305e+1, 8.202e-1
1.306e+1, 8.210e-1
1.307e+1, 8.217e-1
1.308e+1, 8.225e-1
1.309e+1, 8.232e-1
1.310e+1, 8.240e-1
1.311e+1, 8.247e-1
1.312e+1, 8.255e-1
1.313e+1, 8.262e-1
1.314e+1, 8.270e-1
1.315e+1, 8.278e-1
1.316e+1, 8.285e-1
1.317e+1, 8.293e-1
1.318e+1, 8.300e-1
1.319e+1, 8.307e-1
1.320e+1, 8.315e-1
1.321e+1, 8.323e-1
1.322e+1, 8.330e-1
1.323e+1, 8.338e-1
1.324e+1, 8.345e-1
1.325e+1, 8.353e-1
1.326e+1, 8.360e-1
1.327e+1, 8.368e-1
1.328e+1, 8.375e-1
1.329e+1, 8.383e-1
1.330e+1, 8.390e-1
1.331e+1, 8.398e-1
1.332e+1, 8.405e-1
1.333e+1, 8.413e-1
1.334e+1, 8.420e-1
1.335e+1, 8.428e-1
1.336e+1, 8.436e-1
1.337e+1, 8.443e-1
1.338e+1, 8.451e-1
1.339e+1, 8.458e-1
1.340e+1, 8.466e-1
1.341e+1, 8.473e-1
1.342e+1, 8.481e-1
1.343e+1, 8.488e-1
1.344e+1, 8.496e-1
1.345e+1, 8.503e-1
1.346e+1, 8.511e-1
1.347e+1, 8.518e-1
1.348e+1, 8.526e-1
1.349e+1, 8.533e-1
1.350e+1, 8.541e-1
1.351e+1, 8.548e-1
1.352e+1, 8.556e-1
1.353e+1, 8.564e-1
1.354e+1, 8.571e-1
1.355e+1, 8.579e-1
1.356e+1, 8.586e-1
1.357e+1, 8.594e-1
1.358e+1, 8.601e-1
1.359e+1, 8.609e-1
1.360e+1, 8.616e-1
1.361e+1, 8.624e-1
1.362e+1, 8.631e-1
1.363e+1, 8.639e-1
1.364e+1, 8.646e-1
1.365e+1, 8.654e-1
1.366e+1, 8.661e-1
1.367e+1, 8.669e-1
1.368e+1, 8.676e-1
1.369e+1, 8.684e-1
1.370e+1, 8.691e-1
1.371e+1, 8.699e-1
1.372e+1, 8.707e-1
1.373e+1, 8.714e-1
1.374e+1, 8.722e-1
1.375e+1, 8.729e-1
1.376e+1, 8.737e-1
1.377e+1, 8.744e-1
1.378e+1, 8.752e-1
1.379e+1, 8.759e-1
1.380e+1, 8.767e-1
1.381e+1, 8.774e-1
1.382e+1, 8.782e-1
1.383e+1, 8.789e-1
1.384e+1, 8.797e-1
1.385e+1, 8.804e-1
1.386e+1, 8.812e-1
1.387e+1, 8.819e-1
1.388e+1, 8.827e-1
1.389e+1, 8.834e-1
1.390e+1, 8.842e-1
1.391e+1, 8.849e-1
1.392e+1, 8.857e-1
1.393e+1, 8.864e-1
1.394e+1, 8.872e-1
1.395e+1, 8.879e-1
1.396e+1, 8.886e-1
1.397e+1, 8.894e-1
1.398e+1, 8.901e-1
1.399e+1, 8.909e-1
1.400e+1, 8.916e-1
1.401e+1, 8.924e-1
1.402e+1, 8.931e-1
1.403e+1, 8.939e-1
1.404e+1, 8.946e-1
1.405e+1, 8.953e-1
1.406e+1, 8.961e-1
1.407e+1, 8.968e-1
1.408e+1, 8.976e-1
1.409e+1, 8.983e-1
1.410e+1, 8.991e-1
1.411e+1, 8.998e-1
1.412e+1, 8.174e-1
1.413e+1, 8.103e-1
1.414e+1, 8.052e-1
1.415e+1, 8.008e-1
1.416e+1, 7.969e-1
1.417e+1, 7.933e-1
1.418e+1, 7.899e-1
1.419e+1, 7.868e-1
1.420e+1, 7.838e-1
1.421e+1, 7.810e-1
1.422e+1, 7.783e-1
1.423e+1, 7.757e-1
1.424e+1, 7.733e-1
1.425e+1, 7.709e-1
1.426e+1, 7.686e-1
1.427e+1, 7.664e-1
1.428e+1, 7.643e-1
1.429e+1, 7.622e-1
1.430e+1, 7.601e-1
1.431e+1, 7.581e-1
1.432e+1, 7.562e-1
1.433e+1, 7.543e-1
1.434e+1, 7.524e-1
1.435e+1, 7.506e-1
1.436e+1, 7.488e-1
1.437e+1, 7.470e-1
1.438e+1, 7.453e-1
1.439e+1, 7.435e-1
1.440e+1, 7.419e-1
1.441e+1, 7.402e-1
1.442e+1, 7.386e-1
1.443e+1, 7.370e-1
1.444e+1, 7.354e-1
1.445e+1, 7.338e-1
1.446e+1, 7.323e-1
1.447e+1, 7.308e-1
1.448e+1, 7.293e-1
1.449e+1, 7.278e-1
1.450e+1, 7.263e-1
1.451e+1, 7.248e-1
1.452e+1, 7.234e-1
1.453e+1, 7.220e-1
1.454e+1, 7.206e-1
1.455e+1, 7.192e-1
1.456e+1, 7.178e-1
1.457e+1, 7.164e-1
1.458e+1, 7.151e-1
1.459e+1, 7.138e-1
1.460e+1, 7.124e-1
1.461e+1, 7.111e-1
1.462e+1, 7.098e-1
1.463e+1, 7.086e-1
1.464e+1, 7.073e-1
1.465e+1, 7.060e-1
1.466e+1, 7.047e-1
1.467e+1, 7.032e-1
1.468e+1, 7.016e-1
1.469e+1, 6.999e-1
1.470e+1, 6.987e-1
1.471e+1, 6.974e-1
1.472e+1, 6.961e-1
1.473e+1, 6.948e-1
1.474e+1, 6.937e-1
1.475e+1, 6.925e-1
1.476e+1, 6.913e-1
1.477e+1, 6.901e-1
1.478e+1, 6.889e-1
1.479e+1, 6.877e-1
1.480e+1, 6.865e-1
1.481e+1, 6.854e-1
1.482e+1, 6.842e-1
1.483e+1, 6.830e-1
1.484e+1, 6.818e-1
1.485e+1, 6.806e-1
1.486e+1, 6.794e-1
1.487e+1, 6.783e-1
1.488e+1, 6.771e-1
1.489e+1, 6.760e-1
1.490e+1, 6.748e-1
1.491e+1, 6.737e-1
1.492e+1, 6.725e-1
1.493e+1, 6.714e-1
1.494e+1, 6.702e-1
1.495e+1, 6.691e-1
1.496e+1, 6.679e-1
1.497e+1, 6.668e-1
1.498e+1, 6.657e-1
1.499e+1, 6.645e-1
1.500e+1, 6.634e-1
1.501e+1, 6.622e-1
1.502e+1, 6.611e-1
1.503e+1, 6.600e-1
1.504e+1, 6.589e-1
1.505e+1, 6.578e-1
1.506e+1, 6.567e-1
1.507e+1, 6.556e-1
1.508e+1, 6.545e-1
1.509e+1, 6.534e-1
1.510e+1, 6.523e-1
1.511e+1, 6.512e-1
1.512e+1, 6.501e-1
1.513e+1, 6.490e-1
1.514e+1, 6.479e-1
1.515e+1, 6.469e-1
1.516e+1, 6.458e-1
1.517e+1, 6.447e-1
1.518e+1, 6.437e-1
1.519e+1, 6.426e-1
1.520e+1, 6.416e-1
1.521e+1, 6.406e-1
1.522e+1, 6.395e-1
1.523e+1, 6.385e-1
1.524e+1, 6.374e-1
1.525e+1, 6.364e-1
1.526e+1, 6.354e-1
1.527e+1, 6.344e-1
1.528e+1, 6.335e-1
1.529e+1, 6.325e-1
1.530e+1, 6.315e-1
1.531e+1, 6.305e-1
1.532e+1, 6.295e-1
1.533e+1, 6.286e-1
1.534e+1, 6.276e-1
1.535e+1, 6.266e-1
1.536e+1, 6.256e-1
1.537e+1, 6.246e-1
1.538e+1, 6.237e-1
1.539e+1, 6.227e-1
1.540e+1, 6.217e-1
1.541e+1, 6.207e-1
1.542e+1, 6.198e-1
1.543e+1, 6.188e-1
1.544e+1, 6.178e-1
1.545e+1, 6.169e-1
1.546e+1, 6.159e-1
1.547e+1, 6.150e-1
1.548e+1, 6.140e-1
1.549e+1, 6.130e-1
1.550e+1, 6.121e-1
1.551e+1, 6.111e-1
1.552e+1, 6.102e-1
1.553e+1, 6.092e-1
1.554e+1, 6.083e-1
1.555e+1, 6.074e-1
1.556e+1, 6.064e-1
1.557e+1, 6.055e-1
1.558e+1, 6.045e-1
1.559e+1, 6.036e-1
1.560e+1, 6.027e-1
1.561e+1, 6.017e-1
1.562e+1, 6.008e-1
1.563e+1, 5.999e-1
1.564e+1, 5.990e-1
1.565e+1, 5.980e-1
1.566e+1, 5.971e-1
1.567e+1, 5.962e-1
1.568e+1, 5.953e-1
1.569e+1, 5.944e-1
1.570e+1, 5.935e-1
1.571e+1, 5.926e-1
1.572e+1, 5.917e-1
1.573e+1, 5.908e-1
1.574e+1, 5.899e-1
1.575e+1, 5.890e-1
1.576e+1, 5.881e-1
1.577e+1, 5.872e-1
1.578e+1, 5.863e-1
1.579e+1, 5.854e-1
1.580e+1, 5.845e-1
1.581e+1, 5.836e-1
1.582e+1, 5.827e-1
1.583e+1, 5.819e-1
1.584e+1, 5.810e-1
1.585e+1, 5.801e-1
1.586e+1, 5.792e-1
1.587e+1, 5.784e-1
1.588e+1, 5.775e-1
1.589e+1, 5.766e-1
1.590e+1, 5.758e-1
1.591e+1, 5.749e-1
1.592e+1, 5.740e-1
1.593e+1, 5.732e-1
1.594e+1, 5.723e-1
1.595e+1, 5.715e-1
1.596e+1, 5.706e-1
1.597e+1, 5.697e-1
1.598e+1, 5.689e-1
1.599e+1, 5.681e-1
1.600e+1, 5.672e-1
1.601e+1, 5.663e-1
1.602e+1, 5.655e-1
1.603e+1, 5.647e-1
1.604e+1, 5.638e-1
1.605e+1, 5.630e-1
1.606e+1, 5.622e-1
1.607e+1, 5.613e-1
1.608e+1, 5.605e-1
1.609e+1, 5.597e-1
1.610e+1, 5.588e-1
1.611e+1, 5.580e-1
1.612e+1, 5.572e-1
1.613e+1, 5.564e-1
1.614e+1, 5.555e-1
1.615e+1, 5.547e-1
1.616e+1, 5.539e-1
1.617e+1, 5.531e-1
1.618e+1, 5.523e-1
1.619e+1, 5.515e-1
1.620e+1, 5.506e-1
1.621e+1, 5.498e-1
1.622e+1, 5.490e-1
1.623e+1, 5.482e-1
1.624e+1, 5.474e-1
1.625e+1, 5.466e-1
1.626e+1, 5.458e-1
1.627e+1, 5.450e-1
1.628e+1, 5.442e-1
1.629e+1, 5.434e-1
1.630e+1, 5.426e-1
1.631e+1, 5.419e-1
1.632e+1, 5.411e-1
1.633e+1, 5.403e-1
1.634e+1, 5.395e-1
1.635e+1, 5.387e-1
1.636e+1, 5.379e-1
1.637e+1, 5.371e-1
1.638e+1, 5.364e-1
1.639e+1, 5.356e-1
1.640e+1, 5.348e-1
1.641e+1, 5.340e-1
1.642e+1, 5.332e-1
1.643e+1, 5.325e-1
1.644e+1, 5.317e-1
1.645e+1, 5.310e-1
1.646e+1, 5.302e-1
1.647e+1, 5.294e-1
1.648e+1, 5.287e-1
1.649e+1, 5.279e-1
1.650e+1, 5.271e-1
1.651e+1, 5.264e-1
1.652e+1, 5.256e-1
1.653e+1, 5.249e-1
1.654e+1, 5.241e-1
1.655e+1, 5.233e-1
1.656e+1, 5.226e-1
1.657e+1, 5.218e-1
1.658e+1, 5.211e-1
1.659e+1, 5.203e-1
1.660e+1, 5.196e-1
1.661e+1, 5.188e-1
1.662e+1, 5.181e-1
1.663e+1, 5.174e-1
1.664e+1, 5.166e-1
1.665e+1, 5.159e-1
1.666e+1, 5.151e-1
1.667e+1, 5.144e-1
1.668e+1, 5.137e-1
1.669e+1, 5.129e-1
1.670e+1, 5.122e-1
1.671e+1, 5.115e-1
1.672e+1, 5.107e-1
1.673e+1, 5.100e-1
1.674e+1, 5.093e-1
1.675e+1, 5.086e-1
1.676e+1, 5.078e-1
1.677e+1, 5.071e-1
1.678e+1, 5.064e-1
1.679e+1, 5.057e-1
1.680e+1, 5.049e-1
1.681e+1, 5.042e-1
1.682e+1, 5.035e-1
1.683e+1, 5.028e-1
1.684e+1, 5.021e-1
1.685e+1, 5.014e-1
1.686e+1, 5.006e-1
1.687e+1, 4.999e-1
1.688e+1, 4.992e-1
1.689e+1, 4.985e-1
1.690e+1, 4.978e-1
1.691e+1, 4.971e-1
1.692e+1, 4.964e-1
1.693e+1, 4.957e-1
1.694e+1, 4.950e-1
1.695e+1, 4.943e-1
1.696e+1, 4.936e-1
1.697e+1, 4.929e-1
1.698e+1, 4.922e-1
1.699e+1, 4.915e-1
1.700e+1, 4.908e-1
1.701e+1, 4.901e-1
1.702e+1, 4.894e-1
1.703e+1, 4.887e-1
1.704e+1, 4.880e-1
1.705e+1, 4.873e-1
1.706e+1, 4.866e-1
1.707e+1, 4.859e-1
1.708e+1, 4.853e-1
1.709e+1, 4.846e-1
1.710e+1, 4.839e-1
1.711e+1, 4.832e-1
1.712e+1, 4.825e-1
1.713e+1, 4.819e-1
1.714e+1, 4.812e-1
1.715e+1, 4.805e-1
1.716e+1, 4.798e-1
1.717e+1, 4.791e-1
1.718e+1, 4.784e-1
1.719e+1, 4.778e-1
1.720e+1, 4.771e-1
1.721e+1, 4.764e-1
1.722e+1, 4.758e-1
1.723e+1, 4.751e-1
1.724e+1, 4.744e-1
1.725e+1, 4.737e-1
1.726e+1, 4.731e-1
1.727e+1, 4.724e-1
1.728e+1, 4.717e-1
1.729e+1, 4.711e-1
1.730e+1, 4.704e-1
1.731e+1, 4.698e-1
1.732e+1, 4.691e-1
1.733e+1, 4.684e-1
1.734e+1, 4.678e-1
1.735e+1, 4.671e-1
1.736e+1, 4.665e-1
1.737e+1, 4.658e-1
1.738e+1, 4.652e-1
1.739e+1, 4.645e-1
1.740e+1, 4.639e-1
1.741e+1, 4.632e-1
1.742e+1, 4.626e-1
1.743e+1, 4.619e-1
1.744e+1, 4.613e-1
1.745e+1, 4.606e-1
1.746e+1, 4.600e-1
1.747e+1, 4.593e-1
1.748e+1, 4.587e-1
1.749e+1, 4.580e-1
1.750e+1, 4.574e-1
1.751e+1, 4.567e-1
1.752e+1, 4.561e-1
1.753e+1, 4.555e-1
1.754e+1, 4.548e-1
1.755e+1, 4.542e-1
1.756e+1, 4.536e-1
1.757e+1, 4.529e-1
1.758e+1, 4.523e-1
1.759e+1, 4.517e-1
1.760e+1, 4.510e-1
1.761e+1, 4.504e-1
1.762e+1, 4.498e-1
1.763e+1, 4.491e-1
1.764e+1, 4.485e-1
1.765e+1, 4.479e-1
1.766e+1, 4.472e-1
1.767e+1, 4.466e-1
1.768e+1, 4.460e-1
1.769e+1, 4.454e-1
1.770e+1, 4.448e-1
1.771e+1, 4.441e-1
1.772e+1, 4.435e-1
1.773e+1, 4.429e-1
1.774e+1, 4.423e-1
1.775e+1, 4.417e-1
1.776e+1, 4.410e-1
1.777e+1, 4.404e-1
1.778e+1, 4.398e-1
1.779e+1, 4.392e-1
1.780e+1, 4.386e-1
1.781e+1, 4.380e-1
1.782e+1, 4.373e-1
1.783e+1, 4.368e-1
1.784e+1, 4.361e-1
1.785e+1, 4.355e-1
1.786e+1, 4.349e-1
1.787e+1, 4.343e-1
1.788e+1, 4.337e-1
1.789e+1, 4.331e-1
1.790e+1, 4.325e-1
1.791e+1, 4.319e-1
1.792e+1, 4.313e-1
1.793e+1, 4.307e-1
1.794e+1, 4.301e-1
1.795e+1, 4.295e-1
1.796e+1, 4.289e-1
1.797e+1, 4.283e-1
1.798e+1, 4.277e-1
1.799e+1, 4.271e-1
1.800e+1, 4.265e-1
1.801e+1, 4.259e-1
1.802e+1, 4.253e-1
1.803e+1, 4.247e-1
1.804e+1, 4.241e-1
1.805e+1, 4.236e-1
1.806e+1, 4.230e-1
1.807e+1, 4.224e-1
1.808e+1, 4.218e-1
1.809e+1, 4.212e-1
1.810e+1, 4.207e-1
1.811e+1, 4.201e-1
1.812e+1, 4.195e-1
1.813e+1, 4.189e-1
1.814e+1, 4.183e-1
1.815e+1, 4.177e-1
1.816e+1, 4.172e-1
1.817e+1, 4.166e-1
1.818e+1, 4.160e-1
1.819e+1, 4.154e-1
1.820e+1, 4.149e-1
1.821e+1, 4.143e-1
1.822e+1, 4.137e-1
1.823e+1, 4.131e-1
1.824e+1, 4.126e-1
1.825e+1, 4.120e-1
1.826e+1, 4.114e-1
1.827e+1, 4.109e-1
1.828e+1, 4.103e-1
1.829e+1, 4.097e-1
1.830e+1, 4.092e-1
1.831e+1, 4.086e-1
1.832e+1, 4.080e-1
1.833e+1, 4.075e-1
1.834e+1, 4.069e-1
1.835e+1, 4.063e-1
1.836e+1, 4.058e-1
1.837e+1, 4.052e-1
1.838e+1, 4.047e-1
1.839e+1, 4.041e-1
1.840e+1, 4.036e-1
1.841e+1, 4.030e-1
1.842e+1, 4.025e-1
1.843e+1, 4.019e-1
1.844e+1, 4.013e-1
1.845e+1, 4.008e-1
1.846e+1, 4.002e-1
1.847e+1, 3.997e-1
1.848e+1, 3.991e-1
1.849e+1, 3.986e-1
1.850e+1, 3.980e-1
1.851e+1, 3.975e-1
1.852e+1, 3.969e-1
1.853e+1, 3.964e-1
1.854e+1, 3.959e-1
1.855e+1, 3.953e-1
1.856e+1, 3.948e-1
1.857e+1, 3.942e-1
1.858e+1, 3.937e-1
1.859e+1, 3.931e-1
1.860e+1, 3.926e-1
1.861e+1, 3.921e-1
1.862e+1, 3.915e-1
1.863e+1, 3.910e-1
1.864e+1, 3.904e-1
1.865e+1, 3.899e-1
1.866e+1, 3.894e-1
1.867e+1, 3.888e-1
1.868e+1, 3.883e-1
1.869e+1, 3.878e-1
1.870e+1, 3.872e-1
1.871e+1, 3.867e-1
1.872e+1, 3.862e-1
1.873e+1, 3.856e-1
1.874e+1, 3.851e-1
1.875e+1, 3.846e-1
1.876e+1, 3.841e-1
1.877e+1, 3.835e-1
1.878e+1, 3.830e-1
1.879e+1, 3.825e-1
1.880e+1, 3.819e-1
1.881e+1, 3.814e-1
1.882e+1, 3.809e-1
1.883e+1, 3.804e-1
1.884e+1, 3.798e-1
1.885e+1, 3.793e-1
1.886e+1, 3.788e-1
1.887e+1, 3.783e-1
1.888e+1, 3.777e-1
1.889e+1, 3.772e-1
1.890e+1, 3.767e-1
1.891e+1, 3.762e-1
1.892e+1, 3.757e-1
1.893e+1, 3.751e-1
1.894e+1, 3.746e-1
1.895e+1, 3.741e-1
1.896e+1, 3.736e-1
1.897e+1, 3.731e-1
1.898e+1, 3.726e-1
1.899e+1, 3.720e-1
1.900e+1, 3.715e-1
1.901e+1, 3.710e-1
1.902e+1, 3.705e-1
1.903e+1, 3.700e-1
1.904e+1, 3.694e-1
1.905e+1, 3.689e-1
1.906e+1, 3.684e-1
1.907e+1, 3.679e-1
1.908e+1, 3.674e-1
1.909e+1, 3.669e-1
1.910e+1, 3.664e-1
1.911e+1, 3.658e-1
1.912e+1, 3.653e-1
1.913e+1, 3.648e-1
1.914e+1, 3.643e-1
1.915e+1, 3.638e-1
1.916e+1, 3.633e-1
1.917e+1, 3.628e-1
1.918e+1, 3.623e-1
1.919e+1, 3.618e-1
1.920e+1, 3.612e-1
1.921e+1, 3.607e-1
1.922e+1, 3.602e-1
1.923e+1, 3.597e-1
1.924e+1, 3.592e-1
1.925e+1, 3.587e-1
1.926e+1, 3.582e-1
1.927e+1, 3.577e-1
1.928e+1, 3.572e-1
1.929e+1, 3.567e-1
1.930e+1, 3.562e-1
1.931e+1, 3.557e-1
1.932e+1, 3.552e-1
1.933e+1, 3.546e-1
1.934e+1, 3.541e-1
1.935e+1, 3.536e-1
1.936e+1, 3.531e-1
1.937e+1, 3.526e-1
1.938e+1, 3.521e-1
1.939e+1, 3.516e-1
1.940e+1, 3.511e-1
1.941e+1, 3.506e-1
1.942e+1, 3.501e-1
1.943e+1, 3.496e-1
1.944e+1, 3.491e-1
1.945e+1, 3.486e-1
1.946e+1, 3.481e-1
1.947e+1, 3.476e-1
1.948e+1, 3.470e-1
1.949e+1, 3.465e-1
1.950e+1, 3.460e-1
1.951e+1, 3.455e-1
1.952e+1, 3.450e-1
1.953e+1, 3.445e-1
1.954e+1, 3.440e-1
1.955e+1, 3.435e-1
1.956e+1, 3.430e-1
1.957e+1, 3.425e-1
1.958e+1, 3.420e-1
1.959e+1, 3.415e-1
1.960e+1, 3.410e-1
1.961e+1, 3.405e-1
1.962e+1, 3.400e-1
1.963e+1, 3.395e-1
1.964e+1, 3.390e-1
1.965e+1, 3.385e-1
1.966e+1, 3.379e-1
1.967e+1, 3.374e-1
1.968e+1, 3.369e-1
1.969e+1, 3.364e-1
1.970e+1, 3.359e-1
1.971e+1, 3.354e-1
1.972e+1, 3.349e-1
1.973e+1, 3.344e-1
1.974e+1, 3.339e-1
1.975e+1, 3.334e-1
1.976e+1, 3.329e-1
1.977e+1, 3.324e-1
1.978e+1, 3.319e-1
1.979e+1, 3.314e-1
1.980e+1, 3.309e-1
1.981e+1, 3.304e-1
1.982e+1, 3.299e-1
1.983e+1, 3.293e-1
1.984e+1, 3.288e-1
1.985e+1, 3.283e-1
1.986e+1, 3.278e-1
1.987e+1, 3.273e-1
1.988e+1, 3.268e-1
1.989e+1, 3.263e-1
1.990e+1, 3.258e-1
1.991e+1, 3.253e-1
1.992e+1, 3.248e-1
1.993e+1, 3.243e-1
1.994e+1, 3.238e-1
1.995e+1, 3.233e-1
1.996e+1, 3.228e-1
1.997e+1, 3.223e-1
1.998e+1, 3.218e-1
1.999e+1, 3.213e-1
2.000e+1, 3.208e-1
2.001e+1, 3.202e-1
2.002e+1, 3.197e-1
2.003e+1, 3.192e-1
2.004e+1, 3.187e-1
2.005e+1, 3.182e-1
2.006e+1, 3.177e-1
2.007e+1, 3.172e-1
2.008e+1, 3.167e-1
2.009e+1, 3.162e-1
2.010e+1, 3.157e-1
2.011e+1, 3.152e-1
2.012e+1, 3.146e-1
2.013e+1, 3.141e-1
2.014e+1, 3.136e-1
2.015e+1, 3.131e-1
2.016e+1, 3.126e-1
2.017e+1, 3.121e-1
2.018e+1, 3.116e-1
2.019e+1, 3.111e-1
2.020e+1, 3.106e-1
2.021e+1, 3.101e-1
2.022e+1, 3.096e-1
2.023e+1, 3.090e-1
2.024e+1, 3.085e-1
2.025e+1, 3.080e-1
2.026e+1, 3.075e-1
2.027e+1, 3.070e-1
2.028e+1, 3.065e-1
2.029e+1, 3.060e-1
2.030e+1, 3.055e-1
2.031e+1, 3.050e-1
2.032e+1, 3.044e-1
2.033e+1, 3.039e-1
2.034e+1, 3.034e-1
2.035e+1, 3.029e-1
2.036e+1, 3.024e-1
2.037e+1, 3.019e-1
2.038e+1, 3.014e-1
2.039e+1, 3.009e-1
2.040e+1, 3.003e-1
2.041e+1, 2.998e-1
2.042e+1, 2.993e-1
2.043e+1, 2.988e-1
2.044e+1, 2.983e-1
2.045e+1, 2.978e-1
2.046e+1, 2.973e-1
2.047e+1, 2.967e-1
2.048e+1, 2.962e-1
2.049e+1, 2.957e-1
2.050e+1, 2.952e-1
2.051e+1, 2.947e-1
2.052e+1, 2.942e-1
2.053e+1, 2.937e-1
2.054e+1, 2.931e-1
2.055e+1, 2.926e-1
2.056e+1, 2.921e-1
2.057e+1, 2.916e-1
2.058e+1, 2.911e-1
2.059e+1, 2.906e-1
2.060e+1, 2.900e-1
2.061e+1, 2.895e-1
2.062e+1, 2.890e-1
2.063e+1, 2.885e-1
2.064e+1, 2.880e-1
2.065e+1, 2.875e-1
2.066e+1, 2.869e-1
2.067e+1, 2.864e-1
2.068e+1, 2.859e-1
2.069e+1, 2.854e-1
2.070e+1, 2.849e-1
2.071e+1, 2.843e-1
2.072e+1, 2.838e-1
2.073e+1, 2.833e-1
2.074e+1, 2.828e-1
2.075e+1, 2.822e-1
2.076e+1, 2.817e-1
2.077e+1, 2.812e-1
2.078e+1, 2.807e-1
2.079e+1, 2.802e-1
2.080e+1, 2.796e-1
2.081e+1, 2.791e-1
2.082e+1, 2.786e-1
2.083e+1, 2.781e-1
2.084e+1, 2.776e-1
2.085e+1, 2.771e-1
2.086e+1, 2.765e-1
2.087e+1, 2.760e-1
2.088e+1, 2.755e-1
2.089e+1, 2.749e-1
2.090e+1, 2.744e-1
2.091e+1, 2.739e-1
2.092e+1, 2.734e-1
2.093e+1, 2.729e-1
2.094e+1, 2.723e-1
2.095e+1, 2.718e-1
2.096e+1, 2.713e-1
2.097e+1, 2.708e-1
2.098e+1, 2.702e-1
2.099e+1, 2.697e-1
2.100e+1, 2.692e-1
2.101e+1, 2.687e-1
2.102e+1, 2.681e-1
2.103e+1, 2.676e-1
2.104e+1, 2.671e-1
2.105e+1, 2.665e-1
2.106e+1, 2.660e-1
2.107e+1, 2.655e-1
2.108e+1, 2.650e-1
2.109e+1, 2.644e-1
2.110e+1, 2.639e-1
2.111e+1, 2.634e-1
2.112e+1, 2.629e-1
2.113e+1, 2.623e-1
2.114e+1, 2.618e-1
2.115e+1, 2.613e-1
2.116e+1, 2.608e-1
2.117e+1, 2.602e-1
2.118e+1, 2.597e-1
2.119e+1, 2.592e-1
2.120e+1, 2.586e-1
2.121e+1, 2.581e-1
2.122e+1, 2.576e-1
2.123e+1, 2.570e-1
2.124e+1, 2.565e-1
2.125e+1, 2.560e-1
2.126e+1, 2.555e-1
2.127e+1, 2.549e-1
2.128e+1, 2.544e-1
2.129e+1, 2.539e-1
2.130e+1, 2.533e-1
2.131e+1, 2.528e-1
2.132e+1, 2.523e-1
2.133e+1, 2.517e-1
2.134e+1, 2.512e-1
2.135e+1, 2.506e-1
2.136e+1, 2.501e-1
2.137e+1, 2.496e-1
2.138e+1, 2.490e-1
2.139e+1, 2.485e-1
2.140e+1, 2.480e-1
2.141e+1, 2.475e-1
2.142e+1, 2.469e-1
2.143e+1, 2.464e-1
2.144e+1, 2.459e-1
2.145e+1, 2.453e-1
2.146e+1, 2.448e-1
2.147e+1, 2.442e-1
2.148e+1, 2.437e-1
2.149e+1, 2.432e-1
2.150e+1, 2.426e-1
2.151e+1, 2.421e-1
2.152e+1, 2.416e-1
2.153e+1, 2.410e-1
2.154e+1, 2.405e-1
2.155e+1, 2.399e-1
2.156e+1, 2.394e-1
2.157e+1, 2.389e-1
2.158e+1, 2.383e-1
2.159e+1, 2.378e-1
2.160e+1, 2.372e-1
2.161e+1, 2.367e-1
2.162e+1, 2.362e-1
2.163e+1, 2.356e-1
2.164e+1, 2.351e-1
2.165e+1, 2.345e-1
2.166e+1, 2.340e-1
2.167e+1, 2.335e-1
2.168e+1, 2.329e-1
2.169e+1, 2.324e-1
2.170e+1, 2.319e-1
2.171e+1, 2.313e-1
2.172e+1, 2.308e-1
2.173e+1, 2.302e-1
2.174e+1, 2.297e-1
2.175e+1, 2.291e-1
2.176e+1, 2.286e-1
2.177e+1, 2.280e-1
2.178e+1, 2.275e-1
2.179e+1, 2.270e-1
2.180e+1, 2.264e-1
2.181e+1, 2.259e-1
2.182e+1, 2.253e-1
2.183e+1, 2.248e-1
2.184e+1, 2.242e-1
2.185e+1, 2.237e-1
2.186e+1, 2.231e-1
2.187e+1, 2.226e-1
2.188e+1, 2.221e-1
2.189e+1, 2.215e-1
2.190e+1, 2.210e-1
2.191e+1, 2.204e-1
2.192e+1, 2.199e-1
2.193e+1, 2.193e-1
2.194e+1, 2.188e-1
2.195e+1, 2.182e-1
2.196e+1, 2.177e-1
2.197e+1, 2.171e-1
2.198e+1, 2.166e-1
2.199e+1, 2.160e-1
2.200e+1, 2.155e-1
2.201e+1, 2.149e-1
2.202e+1, 2.144e-1
2.203e+1, 2.138e-1
2.204e+1, 2.133e-1
2.205e+1, 2.127e-1
2.206e+1, 2.122e-1
2.207e+1, 2.116e-1
2.208e+1, 2.111e-1
2.209e+1, 2.105e-1
2.210e+1, 2.100e-1
2.211e+1, 2.094e-1
2.212e+1, 2.089e-1
2.213e+1, 2.083e-1
2.214e+1, 2.078e-1
2.215e+1, 2.072e-1
2.216e+1, 2.067e-1
2.217e+1, 2.061e-1
2.218e+1, 2.056e-1
2.219e+1, 2.050e-1
2.220e+1, 2.045e-1
2.221e+1, 2.039e-1
2.222e+1, 2.034e-1
2.223e+1, 2.028e-1
2.224e+1, 2.022e-1
2.225e+1, 2.017e-1
2.226e+1, 2.011e-1
2.227e+1, 2.006e-1
2.228e+1, 2.000e-1
2.229e+1, 1.995e-1
2.230e+1, 1.989e-1
2.231e+1, 1.984e-1
2.232e+1, 1.978e-1
2.233e+1, 1.973e-1
2.234e+1, 1.967e-1
2.235e+1, 1.961e-1
2.236e+1, 1.956e-1
2.237e+1, 1.950e-1
2.238e+1, 1.945e-1
2.239e+1, 1.939e-1
2.240e+1, 1.933e-1
2.241e+1, 1.928e-1
2.242e+1, 1.922e-1
2.243e+1, 1.917e-1
2.244e+1, 1.911e-1
2.245e+1, 1.905e-1
2.246e+1, 1.900e-1
2.247e+1, 1.894e-1
2.248e+1, 1.889e-1
2.249e+1, 1.883e-1
2.250e+1, 1.877e-1
2.251e+1, 1.872e-1
2.252e+1, 1.866e-1
2.253e+1, 1.861e-1
2.254e+1, 1.855e-1
2.255e+1, 1.849e-1
2.256e+1, 1.844e-1
2.257e+1, 1.838e-1
2.258e+1, 1.833e-1
2.259e+1, 1.827e-1
2.260e+1, 1.821e-1
2.261e+1, 1.816e-1
2.262e+1, 1.810e-1
2.263e+1, 1.804e-1
2.264e+1, 1.799e-1
2.265e+1, 1.793e-1
2.266e+1, 1.788e-1
2.267e+1, 1.782e-1
2.268e+1, 1.776e-1
2.269e+1, 1.770e-1
2.270e+1, 1.765e-1
2.271e+1, 1.759e-1
2.272e+1, 1.754e-1
2.273e+1, 1.748e-1
2.274e+1, 1.742e-1
2.275e+1, 1.737e-1
2.276e+1, 1.731e-1
2.277e+1, 1.725e-1
2.278e+1, 1.719e-1
2.279e+1, 1.714e-1
2.280e+1, 1.708e-1
2.281e+1, 1.703e-1
2.282e+1, 1.697e-1
2.283e+1, 1.691e-1
2.284e+1, 1.686e-1
2.285e+1, 1.680e-1
2.286e+1, 1.674e-1
2.287e+1, 1.669e-1
2.288e+1, 1.663e-1
2.289e+1, 1.657e-1
2.290e+1, 1.651e-1
2.291e+1, 1.646e-1
2.292e+1, 1.640e-1
2.293e+1, 1.634e-1
2.294e+1, 1.629e-1
2.295e+1, 1.623e-1
2.296e+1, 1.617e-1
2.297e+1, 1.611e-1
2.298e+1, 1.606e-1
2.299e+1, 1.600e-1
2.300e+1, 1.594e-1
2.301e+1, 1.589e-1
2.302e+1, 1.583e-1
2.303e+1, 1.577e-1
2.304e+1, 1.571e-1
2.305e+1, 1.566e-1
2.306e+1, 1.560e-1
2.307e+1, 1.554e-1
2.308e+1, 1.548e-1
2.309e+1, 1.543e-1
2.310e+1, 1.537e-1
2.311e+1, 1.531e-1
2.312e+1, 1.526e-1
2.313e+1, 1.520e-1
2.314e+1, 1.514e-1
2.315e+1, 1.508e-1
2.316e+1, 1.503e-1
2.317e+1, 1.497e-1
2.318e+1, 1.491e-1
2.319e+1, 1.485e-1
2.320e+1, 1.480e-1
2.321e+1, 1.474e-1
2.322e+1, 1.468e-1
2.323e+1, 1.462e-1
2.324e+1, 1.457e-1
2.325e+1, 1.451e-1
2.326e+1, 1.445e-1
2.327e+1, 1.439e-1
2.328e+1, 1.433e-1
2.329e+1, 1.428e-1
2.330e+1, 1.422e-1
2.331e+1, 1.416e-1
2.332e+1, 1.410e-1
2.333e+1, 1.404e-1
2.334e+1, 1.399e-1
2.335e+1, 1.393e-1
2.336e+1, 1.387e-1
2.337e+1, 1.381e-1
2.338e+1, 1.376e-1
2.339e+1, 1.370e-1
2.340e+1, 1.364e-1
2.341e+1, 1.358e-1
2.342e+1, 1.353e-1
2.343e+1, 1.347e-1
2.344e+1, 1.341e-1
2.345e+1, 1.335e-1
2.346e+1, 1.329e-1
2.347e+1, 1.323e-1
2.348e+1, 1.318e-1
2.349e+1, 1.312e-1
2.350e+1, 1.306e-1
2.351e+1, 1.300e-1
2.352e+1, 1.294e-1
2.353e+1, 1.289e-1
2.354e+1, 1.283e-1
2.355e+1, 1.277e-1
2.356e+1, 1.271e-1
2.357e+1, 1.265e-1
2.358e+1, 1.259e-1
2.359e+1, 1.254e-1
2.360e+1, 1.248e-1
2.361e+1, 1.242e-1
2.362e+1, 1.236e-1
2.363e+1, 1.230e-1
2.364e+1, 1.225e-1
2.365e+1, 1.219e-1
2.366e+1, 1.213e-1
2.367e+1, 1.207e-1
2.368e+1, 1.201e-1
2.369e+1, 1.196e-1
2.370e+1, 1.190e-1
2.371e+1, 1.184e-1
2.372e+1, 1.178e-1
2.373e+1, 1.172e-1
2.374e+1, 1.166e-1
2.375e+1, 1.160e-1
2.376e+1, 1.155e-1
2.377e+1, 1.149e-1
2.378e+1, 1.143e-1
2.379e+1, 1.137e-1
2.380e+1, 1.131e-1
2.381e+1, 1.125e-1
2.382e+1, 1.120e-1
2.383e+1, 1.114e-1
2.384e+1, 1.108e-1
2.385e+1, 1.102e-1
2.386e+1, 1.096e-1
2.387e+1, 1.090e-1
2.388e+1, 1.084e-1
2.389e+1, 1.078e-1
2.390e+1, 1.073e-1
2.391e+1, 1.067e-1
2.392e+1, 1.061e-1
2.393e+1, 1.055e-1
2.394e+1, 1.049e-1
2.395e+1, 1.044e-1
2.396e+1, 1.038e-1
2.397e+1, 1.032e-1
2.398e+1, 1.026e-1
2.399e+1, 1.020e-1
2.400e+1, 1.014e-1
2.401e+1, 1.008e-1
2.402e+1, 1.002e-1
2.403e+1, 9.965e-2
2.404e+1, 9.908e-2
2.405e+1, 9.848e-2
2.406e+1, 9.790e-2
2.407e+1, 9.730e-2
2.408e+1, 9.672e-2
2.409e+1, 9.613e-2
2.410e+1, 9.556e-2
2.411e+1, 9.496e-2
2.412e+1, 9.437e-2
2.413e+1, 9.377e-2
2.414e+1, 9.319e-2
2.415e+1, 9.261e-2
2.416e+1, 9.203e-2
2.417e+1, 9.143e-2
2.418e+1, 9.085e-2
2.419e+1, 9.027e-2
2.420e+1, 8.969e-2
2.421e+1, 8.909e-2
2.422e+1, 8.852e-2
2.423e+1, 8.792e-2
2.424e+1, 8.735e-2
2.425e+1, 8.675e-2
2.426e+1, 8.616e-2
2.427e+1, 8.556e-2
2.428e+1, 8.499e-2
2.429e+1, 8.439e-2
2.430e+1, 8.381e-2
2.431e+1, 8.322e-2
2.432e+1, 8.264e-2
2.433e+1, 8.204e-2
2.434e+1, 8.146e-2
2.435e+1, 8.086e-2
2.436e+1, 8.029e-2
2.437e+1, 7.969e-2
2.438e+1, 7.911e-2
2.439e+1, 7.850e-2
2.440e+1, 7.793e-2
2.441e+1, 7.733e-2
2.442e+1, 7.675e-2
2.443e+1, 7.616e-2
2.444e+1, 7.558e-2
2.445e+1, 7.499e-2
2.446e+1, 7.442e-2
2.447e+1, 7.382e-2
2.448e+1, 7.324e-2
2.449e+1, 7.265e-2
2.450e+1, 7.207e-2
2.451e+1, 7.147e-2
2.452e+1, 7.089e-2
2.453e+1, 7.029e-2
2.454e+1, 6.972e-2
2.455e+1, 6.911e-2
2.456e+1, 6.854e-2
2.457e+1, 6.794e-2
2.458e+1, 6.736e-2
2.459e+1, 6.676e-2
2.460e+1, 6.618e-2
2.461e+1, 6.558e-2
2.462e+1, 6.500e-2
2.463e+1, 6.441e-2
2.464e+1, 6.383e-2
2.465e+1, 6.323e-2
2.466e+1, 6.265e-2
2.467e+1, 6.205e-2
2.468e+1, 6.147e-2
2.469e+1, 6.088e-2
2.470e+1, 6.030e-2
2.471e+1, 5.970e-2
2.472e+1, 5.913e-2
2.473e+1, 5.855e-2
2.474e+1, 5.796e-2
2.475e+1, 5.736e-2
2.476e+1, 5.679e-2
2.477e+1, 5.619e-2
2.478e+1, 5.561e-2
2.479e+1, 5.501e-2
2.480e+1, 5.443e-2
2.481e+1, 5.384e-2
2.482e+1, 5.326e-2
2.483e+1, 5.267e-2
2.484e+1, 5.209e-2
2.485e+1, 5.149e-2
2.486e+1, 5.091e-2
2.487e+1, 5.031e-2
2.488e+1, 4.974e-2
2.489e+1, 4.914e-2
2.490e+1, 4.858e-2
2.491e+1, 4.797e-2
2.492e+1, 4.739e-2
2.493e+1, 4.679e-2
2.494e+1, 4.621e-2
2.495e+1, 4.562e-2
2.496e+1, 4.505e-2
2.497e+1, 4.445e-2
2.498e+1, 4.387e-2
2.499e+1, 4.328e-2
2.500e+1, 4.271e-2
2.501e+1, 4.212e-2
2.502e+1, 4.154e-2
2.503e+1, 4.095e-2
2.504e+1, 4.038e-2
2.505e+1, 3.978e-2
2.506e+1, 3.919e-2
2.507e+1, 3.860e-2
2.508e+1, 3.803e-2
2.509e+1, 3.744e-2
2.510e+1, 3.686e-2
2.511e+1, 3.627e-2
2.512e+1, 3.569e-2
2.513e+1, 3.510e-2
2.514e+1, 3.454e-2
2.515e+1, 3.394e-2
2.516e+1, 3.337e-2
2.517e+1, 3.278e-2
2.518e+1, 3.220e-2
2.519e+1, 3.159e-2
2.520e+1, 3.102e-2
2.521e+1, 3.042e-2
2.522e+1, 2.985e-2
2.523e+1, 2.926e-2
2.524e+1, 2.869e-2
2.525e+1, 2.810e-2
2.526e+1, 2.753e-2
2.527e+1, 2.694e-2
2.528e+1, 2.637e-2
2.529e+1, 2.577e-2
2.530e+1, 2.520e-2
2.531e+1, 2.461e-2
2.532e+1, 2.404e-2
2.533e+1, 2.344e-2
2.534e+1, 2.287e-2
2.535e+1, 2.227e-2
2.536e+1, 2.170e-2
2.537e+1, 2.112e-2
2.538e+1, 2.054e-2
2.539e+1, 1.995e-2
2.540e+1, 1.937e-2
2.541e+1, 1.878e-2
2.542e+1, 1.821e-2
2.543e+1, 1.762e-2
2.544e+1, 1.705e-2
2.545e+1, 1.646e-2
2.546e+1, 1.588e-2
2.547e+1, 1.529e-2
2.548e+1, 1.472e-2
2.549e+1, 1.413e-2
2.550e+1, 1.356e-2
2.551e+1, 1.297e-2
2.552e+1, 1.240e-2
2.553e+1, 1.182e-2
2.554e+1, 1.125e-2
2.555e+1, 1.066e-2
2.556e+1, 1.009e-2
2.557e+1, 9.508e-3
2.558e+1, 8.936e-3
2.559e+1, 8.346e-3
2.560e+1, 7.769e-3
2.561e+1, 7.177e-3
2.562e+1, 6.610e-3
2.563e+1, 6.022e-3
2.564e+1, 5.456e-3
2.565e+1, 4.867e-3
2.566e+1, 4.295e-3
2.567e+1, 3.709e-3
2.568e+1, 3.139e-3
2.569e+1, 2.549e-3
2.570e+1, 1.979e-3
2.571e+1, 1.395e-3
2.572e+1, 8.265e-4
2.573e+1, 2.369e-4
2.574e+1, -3.369e-4
2.575e+1, -9.275e-4
2.576e+1, -1.490e-3
2.577e+1, -2.075e-3
2.578e+1, -2.639e-3
2.579e+1, -3.233e-3
2.580e+1, -3.798e-3
2.581e+1, -4.371e-3
2.582e+1, -4.944e-3
2.583e+1, -5.529e-3
2.584e+1, -6.092e-3
2.585e+1, -6.678e-3
2.586e+1, -7.247e-3
2.587e+1, -7.838e-3
2.588e+1, -8.407e-3
2.589e+1, -8.994e-3
2.590e+1, -9.561e-3
2.591e+1, -1.014e-2
2.592e+1, -1.071e-2
2.593e+1, -1.130e-2
2.594e+1, -1.186e-2
2.595e+1, -1.245e-2
2.596e+1, -1.302e-2
2.597e+1, -1.360e-2
2.598e+1, -1.417e-2
2.599e+1, -1.475e-2
2.600e+1, -1.531e-2
2.601e+1, -1.590e-2
2.602e+1, -1.647e-2
2.603e+1, -1.705e-2
2.604e+1, -1.762e-2
2.605e+1, -1.819e-2
2.606e+1, -1.877e-2
2.607e+1, -1.935e-2
2.608e+1, -1.991e-2
2.609e+1, -2.049e-2
2.610e+1, -2.106e-2
2.611e+1, -2.163e-2
2.612e+1, -2.220e-2
2.613e+1, -2.279e-2
2.614e+1, -2.335e-2
2.615e+1, -2.394e-2
2.616e+1, -2.451e-2
2.617e+1, -2.509e-2
2.618e+1, -2.566e-2
2.619e+1, -2.624e-2
2.620e+1, -2.680e-2
2.621e+1, -2.739e-2
2.622e+1, -2.796e-2
2.623e+1, -2.855e-2
2.624e+1, -2.911e-2
2.625e+1, -2.968e-2
2.626e+1, -3.026e-2
2.627e+1, -3.084e-2
2.628e+1, -3.141e-2
2.629e+1, -3.200e-2
2.630e+1, -3.256e-2
2.631e+1, -3.315e-2
2.632e+1, -3.370e-2
2.633e+1, -3.429e-2
2.634e+1, -3.486e-2
2.635e+1, -3.544e-2
2.636e+1, -3.599e-2
2.637e+1, -3.657e-2
2.638e+1, -3.714e-2
2.639e+1, -3.772e-2
2.640e+1, -3.829e-2
2.641e+1, -3.887e-2
2.642e+1, -3.944e-2
2.643e+1, -4.003e-2
2.644e+1, -4.060e-2
2.645e+1, -4.118e-2
2.646e+1, -4.174e-2
2.647e+1, -4.233e-2
2.648e+1, -4.289e-2
2.649e+1, -4.348e-2
2.650e+1, -4.405e-2
2.651e+1, -4.463e-2
2.652e+1, -4.520e-2
2.653e+1, -4.578e-2
2.654e+1, -4.634e-2
2.655e+1, -4.693e-2
2.656e+1, -4.751e-2
2.657e+1, -4.809e-2
2.658e+1, -4.866e-2
2.659e+1, -4.924e-2
2.660e+1, -4.981e-2
2.661e+1, -5.040e-2
2.662e+1, -5.096e-2
2.663e+1, -5.154e-2
2.664e+1, -5.210e-2
2.665e+1, -5.269e-2
2.666e+1, -5.326e-2
2.667e+1, -5.384e-2
2.668e+1, -5.441e-2
2.669e+1, -5.500e-2
2.670e+1, -5.558e-2
2.671e+1, -5.616e-2
2.672e+1, -5.673e-2
2.673e+1, -5.732e-2
2.674e+1, -5.788e-2
2.675e+1, -5.848e-2
2.676e+1, -5.905e-2
2.677e+1, -5.964e-2
2.678e+1, -6.021e-2
2.679e+1, -6.079e-2
2.680e+1, -6.136e-2
2.681e+1, -6.195e-2
2.682e+1, -6.252e-2
2.683e+1, -6.312e-2
2.684e+1, -6.370e-2
2.685e+1, -6.428e-2
2.686e+1, -6.486e-2
2.687e+1, -6.544e-2
2.688e+1, -6.602e-2
2.689e+1, -6.661e-2
2.690e+1, -6.716e-2
2.691e+1, -6.775e-2
2.692e+1, -6.833e-2
2.693e+1, -6.892e-2
2.694e+1, -6.949e-2
2.695e+1, -7.007e-2
2.696e+1, -7.066e-2
2.697e+1, -7.125e-2
2.698e+1, -7.183e-2
2.699e+1, -7.242e-2
2.700e+1, -7.299e-2
2.701e+1, -7.358e-2
2.702e+1, -7.416e-2
2.703e+1, -7.475e-2
2.704e+1, -7.533e-2
2.705e+1, -7.593e-2
2.706e+1, -7.650e-2
2.707e+1, -7.710e-2
2.708e+1, -7.767e-2
2.709e+1, -7.826e-2
2.710e+1, -7.885e-2
2.711e+1, -7.945e-2
2.712e+1, -8.002e-2
2.713e+1, -8.061e-2
2.714e+1, -8.119e-2
2.715e+1, -8.179e-2
2.716e+1, -8.237e-2
2.717e+1, -8.295e-2
2.718e+1, -8.353e-2
2.719e+1, -8.413e-2
2.720e+1, -8.471e-2
2.721e+1, -8.530e-2
2.722e+1, -8.588e-2
2.723e+1, -8.648e-2
2.724e+1, -8.707e-2
2.725e+1, -8.767e-2
2.726e+1, -8.825e-2
2.727e+1, -8.884e-2
2.728e+1, -8.942e-2
2.729e+1, -9.002e-2
2.730e+1, -9.060e-2
2.731e+1, -9.120e-2
2.732e+1, -9.178e-2
2.733e+1, -9.238e-2
2.734e+1, -9.297e-2
2.735e+1, -9.357e-2
2.736e+1, -9.414e-2
2.737e+1, -9.475e-2
2.738e+1, -9.534e-2
2.739e+1, -9.594e-2
2.740e+1, -9.652e-2
2.741e+1, -9.712e-2
2.742e+1, -9.770e-2
2.743e+1, -9.830e-2
2.744e+1, -9.888e-2
2.745e+1, -9.948e-2
2.746e+1, -1.329e-2
2.747e+1, -9.027e-3
2.748e+1, -5.295e-3
2.749e+1, -2.692e-3
2.750e+1, -1.068e-4
2.751e+1, 2.411e-3
2.752e+1, 4.817e-3
2.753e+1, 7.128e-3
2.754e+1, 9.333e-3
2.755e+1, 1.146e-2
2.756e+1, 1.348e-2
2.757e+1, 1.546e-2
2.758e+1, 1.737e-2
2.759e+1, 1.924e-2
2.760e+1, 2.104e-2
2.761e+1, 2.279e-2
2.762e+1, 2.449e-2
2.763e+1, 2.616e-2
2.764e+1, 2.776e-2
2.765e+1, 2.934e-2
2.766e+1, 3.087e-2
2.767e+1, 3.239e-2
2.768e+1, 3.385e-2
2.769e+1, 3.530e-2
2.770e+1, 3.672e-2
2.771e+1, 3.811e-2
2.772e+1, 3.946e-2
2.773e+1, 4.081e-2
2.774e+1, 4.212e-2
2.775e+1, 4.341e-2
2.776e+1, 4.468e-2
2.777e+1, 4.594e-2
2.778e+1, 4.717e-2
2.779e+1, 4.840e-2
2.780e+1, 4.959e-2
2.781e+1, 5.078e-2
2.782e+1, 5.195e-2
2.783e+1, 5.311e-2
2.784e+1, 5.425e-2
2.785e+1, 5.539e-2
2.786e+1, 5.650e-2
2.787e+1, 5.761e-2
2.788e+1, 5.870e-2
2.789e+1, 5.979e-2
2.790e+1, 6.085e-2
2.791e+1, 6.192e-2
2.792e+1, 6.298e-2
2.793e+1, 6.405e-2
2.794e+1, 6.509e-2
2.795e+1, 6.614e-2
2.796e+1, 6.718e-2
2.797e+1, 6.822e-2
2.798e+1, 6.925e-2
2.799e+1, 7.027e-2
2.800e+1, 7.127e-2
2.801e+1, 7.226e-2
2.802e+1, 7.319e-2
2.803e+1, 7.413e-2
2.804e+1, 7.504e-2
2.805e+1, 7.597e-2
2.806e+1, 7.691e-2
2.807e+1, 7.787e-2
2.808e+1, 7.882e-2
2.809e+1, 7.977e-2
2.810e+1, 8.067e-2
2.811e+1, 8.158e-2
2.812e+1, 8.247e-2
2.813e+1, 8.338e-2
2.814e+1, 8.429e-2
2.815e+1, 8.521e-2
2.816e+1, 8.614e-2
2.817e+1, 8.708e-2
2.818e+1, 8.799e-2
2.819e+1, 8.884e-2
2.820e+1, 8.966e-2
2.821e+1, 9.050e-2
2.822e+1, 9.133e-2
2.823e+1, 9.219e-2
2.824e+1, 9.303e-2
2.825e+1, 9.389e-2
2.826e+1, 9.474e-2
2.827e+1, 9.559e-2
2.828e+1, 9.643e-2
2.829e+1, 9.728e-2
2.830e+1, 9.811e-2
2.831e+1, 9.896e-2
2.832e+1, 9.979e-2
2.833e+1, 1.006e-1
2.834e+1, 1.015e-1
2.835e+1, 1.023e-1
2.836e+1, 1.031e-1
2.837e+1, 1.039e-1
2.838e+1, 1.048e-1
2.839e+1, 1.056e-1
2.840e+1, 1.064e-1
2.841e+1, 1.072e-1
2.842e+1, 1.080e-1
2.843e+1, 1.088e-1
2.844e+1, 1.096e-1
2.845e+1, 1.104e-1
2.846e+1, 1.112e-1
2.847e+1, 1.120e-1
2.848e+1, 1.128e-1
2.849e+1, 1.136e-1
2.850e+1, 1.144e-1
2.851e+1, 1.152e-1
2.852e+1, 1.160e-1
2.853e+1, 1.168e-1
2.854e+1, 1.176e-1
2.855e+1, 1.184e-1
2.856e+1, 1.192e-1
2.857e+1, 1.200e-1
2.858e+1, 1.208e-1
2.859e+1, 1.215e-1
2.860e+1, 1.223e-1
2.861e+1, 1.231e-1
2.862e+1, 1.239e-1
2.863e+1, 1.246e-1
2.864e+1, 1.254e-1
2.865e+1, 1.262e-1
2.866e+1, 1.270e-1
2.867e+1, 1.277e-1
2.868e+1, 1.285e-1
2.869e+1, 1.293e-1
2.870e+1, 1.300e-1
2.871e+1, 1.308e-1
2.872e+1, 1.316e-1
2.873e+1, 1.323e-1
2.874e+1, 1.331e-1
2.875e+1, 1.339e-1
2.876e+1, 1.346e-1
2.877e+1, 1.354e-1
2.878e+1, 1.361e-1
2.879e+1, 1.369e-1
2.880e+1, 1.376e-1
2.881e+1, 1.384e-1
2.882e+1, 1.391e-1
2.883e+1, 1.399e-1
2.884e+1, 1.406e-1
2.885e+1, 1.414e-1
2.886e+1, 1.421e-1
2.887e+1, 1.429e-1
2.888e+1, 1.436e-1
2.889e+1, 1.444e-1
2.890e+1, 1.451e-1
2.891e+1, 1.459e-1
2.892e+1, 1.466e-1
2.893e+1, 1.474e-1
2.894e+1, 1.481e-1
2.895e+1, 1.488e-1
2.896e+1, 1.496e-1
2.897e+1, 1.503e-1
2.898e+1, 1.511e-1
2.899e+1, 1.518e-1
2.900e+1, 1.525e-1
2.901e+1, 1.533e-1
2.902e+1, 1.540e-1
2.903e+1, 1.547e-1
2.904e+1, 1.554e-1
2.905e+1, 1.562e-1
2.906e+1, 1.569e-1
2.907e+1, 1.576e-1
2.908e+1, 1.584e-1
2.909e+1, 1.591e-1
2.910e+1, 1.598e-1
2.911e+1, 1.605e-1
2.912e+1, 1.613e-1
2.913e+1, 1.620e-1
2.914e+1, 1.627e-1
2.915e+1, 1.634e-1
2.916e+1, 1.641e-1
2.917e+1, 1.649e-1
2.918e+1, 1.656e-1
2.919e+1, 1.663e-1
2.920e+1, 1.670e-1
2.921e+1, 1.677e-1
2.922e+1, 1.685e-1
2.923e+1, 1.692e-1
2.924e+1, 1.699e-1
2.925e+1, 1.706e-1
2.926e+1, 1.713e-1
2.927e+1, 1.720e-1
2.928e+1, 1.727e-1
2.929e+1, 1.734e-1
2.930e+1, 1.741e-1
2.931e+1, 1.749e-1
2.932e+1, 1.756e-1
2.933e+1, 1.763e-1
2.934e+1, 1.770e-1
2.935e+1, 1.777e-1
2.936e+1, 1.784e-1
2.937e+1, 1.791e-1
2.938e+1, 1.798e-1
2.939e+1, 1.805e-1
2.940e+1, 1.812e-1
2.941e+1, 1.819e-1
2.942e+1, 1.826e-1
2.943e+1, 1.833e-1
2.944e+1, 1.840e-1
2.945e+1, 1.847e-1
2.946e+1, 1.854e-1
2.947e+1, 1.861e-1
2.948e+1, 1.868e-1
2.949e+1, 1.875e-1
2.950e+1, 1.882e-1
2.951e+1, 1.889e-1
2.952e+1, 1.896e-1
2.953e+1, 1.903e-1
2.954e+1, 1.909e-1
2.955e+1, 1.916e-1
2.956e+1, 1.923e-1
2.957e+1, 1.930e-1
2.958e+1, 1.937e-1
2.959e+1, 1.944e-1
2.960e+1, 1.951e-1
2.961e+1, 1.958e-1
2.962e+1, 1.964e-1
2.963e+1, 1.971e-1
2.964e+1, 1.978e-1
2.965e+1, 1.985e-1
2.966e+1, 1.992e-1
2.967e+1, 1.999e-1
2.968e+1, 2.006e-1
2.969e+1, 2.012e-1
2.970e+1, 2.019e-1
2.971e+1, 2.026e-1
2.972e+1, 2.033e-1
2.973e+1, 2.039e-1
2.974e+1, 2.046e-1
2.975e+1, 2.053e-1
2.976e+1, 2.060e-1
2.977e+1, 2.066e-1
2.978e+1, 2.073e-1
2.979e+1, 2.080e-1
2.980e+1, 2.087e-1
2.981e+1, 2.094e-1
2.982e+1, 2.100e-1
2.983e+1, 2.107e-1
2.984e+1, 2.114e-1
2.985e+1, 2.120e-1
2.986e+1, 2.127e-1
2.987e+1, 2.134e-1
2.988e+1, 2.140e-1
2.989e+1, 2.147e-1
2.990e+1, 2.154e-1
2.991e+1, 2.161e-1
2.992e+1, 2.167e-1
2.993e+1, 2.174e-1
2.994e+1, 2.180e-1
2.995e+1, 2.187e-1
2.996e+1, 2.194e-1
2.997e+1, 2.200e-1
2.998e+1, 2.207e-1
2.999e+1, 2.214e-1
3.000e+1, 2.220e-1
3.001e+1, 2.227e-1
3.002e+1, 2.233e-1
3.003e+1, 2.240e-1
3.004e+1, 2.247e-1
3.005e+1, 2.253e-1
3.006e+1, 2.260e-1
3.007e+1, 2.267e-1
3.008e+1, 2.273e-1
3.009e+1, 2.280e-1
3.010e+1, 2.286e-1
3.011e+1, 2.293e-1
3.012e+1, 2.299e-1
3.013e+1, 2.306e-1
3.014e+1, 2.312e-1
3.015e+1, 2.319e-1
3.016e+1, 2.326e-1
3.017e+1, 2.332e-1
3.018e+1, 2.339e-1
3.019e+1, 2.345e-1
3.020e+1, 2.352e-1
3.021e+1, 2.358e-1
3.022e+1, 2.365e-1
3.023e+1, 2.371e-1
3.024e+1, 2.378e-1
3.025e+1, 2.384e-1
3.026e+1, 2.391e-1
3.027e+1, 2.397e-1
3.028e+1, 2.404e-1
3.029e+1, 2.410e-1
3.030e+1, 2.417e-1
3.031e+1, 2.423e-1
3.032e+1, 2.430e-1
3.033e+1, 2.436e-1
3.034e+1, 2.443e-1
3.035e+1, 2.449e-1
3.036e+1, 2.456e-1
3.037e+1, 2.462e-1
3.038e+1, 2.468e-1
3.039e+1, 2.475e-1
3.040e+1, 2.481e-1
3.041e+1, 2.488e-1
3.042e+1, 2.494e-1
3.043e+1, 2.500e-1
3.044e+1, 2.507e-1
3.045e+1, 2.513e-1
3.046e+1, 2.520e-1
3.047e+1, 2.526e-1
3.048e+1, 2.533e-1
3.049e+1, 2.539e-1
3.050e+1, 2.545e-1
3.051e+1, 2.552e-1
3.052e+1, 2.558e-1
3.053e+1, 2.565e-1
3.054e+1, 2.571e-1
3.055e+1, 2.577e-1
3.056e+1, 2.584e-1
3.057e+1, 2.590e-1
3.058e+1, 2.597e-1
3.059e+1, 2.603e-1
3.060e+1, 2.609e-1
3.061e+1, 2.616e-1
3.062e+1, 2.622e-1
3.063e+1, 2.628e-1
3.064e+1, 2.635e-1
3.065e+1, 2.641e-1
3.066e+1, 2.647e-1
3.067e+1, 2.654e-1
3.068e+1, 2.660e-1
3.069e+1, 2.666e-1
3.070e+1, 2.672e-1
3.071e+1, 2.679e-1
3.072e+1, 2.685e-1
3.073e+1, 2.692e-1
3.074e+1, 2.698e-1
3.075e+1, 2.704e-1
3.076e+1, 2.710e-1
3.077e+1, 2.717e-1
3.078e+1, 2.723e-1
3.079e+1, 2.729e-1
3.080e+1, 2.736e-1
3.081e+1, 2.742e-1
3.082e+1, 2.748e-1
3.083e+1, 2.754e-1
3.084e+1, 2.761e-1
3.085e+1, 2.767e-1
3.086e+1, 2.773e-1
3.087e+1, 2.779e-1
3.088e+1, 2.786e-1
3.089e+1, 2.792e-1
3.090e+1, 2.798e-1
3.091e+1, 2.804e-1
3.092e+1, 2.810e-1
3.093e+1, 2.817e-1
3.094e+1, 2.823e-1
3.095e+1, 2.829e-1
3.096e+1, 2.835e-1
3.097e+1, 2.842e-1
3.098e+1, 2.848e-1
3.099e+1, 2.854e-1
3.100e+1, 2.860e-1
3.101e+1, 2.866e-1
3.102e+1, 2.873e-1
3.103e+1, 2.879e-1
3.104e+1, 2.885e-1
3.105e+1, 2.891e-1
3.106e+1, 2.897e-1
3.107e+1, 2.904e-1
3.108e+1, 2.910e-1
3.109e+1, 2.916e-1
3.110e+1, 2.922e-1
3.111e+1, 2.928e-1
3.112e+1, 2.934e-1
3.113e+1, 2.941e-1
3.114e+1, 2.947e-1
3.115e+1, 2.953e-1
3.116e+1, 2.959e-1
3.117e+1, 2.965e-1
3.118e+1, 2.971e-1
3.119e+1, 2.977e-1
3.120e+1, 2.983e-1
3.121e+1, 2.990e-1
3.122e+1, 2.996e-1
3.123e+1, 3.002e-1
3.124e+1, 3.008e-1
3.125e+1, 3.014e-1
3.126e+1, 3.020e-1
3.127e+1, 3.026e-1
3.128e+1, 3.032e-1
3.129e+1, 3.038e-1
3.130e+1, 3.045e-1
3.131e+1, 3.051e-1
3.132e+1, 3.057e-1
3.133e+1, 3.063e-1
3.134e+1, 3.069e-1
3.135e+1, 3.075e-1
3.136e+1, 3.081e-1
3.137e+1, 3.087e-1
3.138e+1, 3.093e-1
3.139e+1, 3.099e-1
3.140e+1, 3.105e-1
3.141e+1, 3.111e-1
3.142e+1, 3.117e-1
3.143e+1, 3.123e-1
3.144e+1, 3.129e-1
3.145e+1, 3.135e-1
3.146e+1, 3.141e-1
3.147e+1, 3.147e-1
3.148e+1, 3.154e-1
3.149e+1, 3.160e-1
3.150e+1, 3.166e-1
3.151e+1, 3.172e-1
3.152e+1, 3.178e-1
3.153e+1, 3.184e-1
3.154e+1, 3.190e-1
3.155e+1, 3.196e-1
3.156e+1, 3.202e-1
3.157e+1, 3.208e-1
3.158e+1, 3.214e-1
3.159e+1, 3.220e-1
3.160e+1, 3.226e-1
3.161e+1, 3.232e-1
3.162e+1, 3.238e-1
3.163e+1, 3.244e-1
3.164e+1, 3.249e-1
3.165e+1, 3.255e-1
3.166e+1, 3.261e-1
3.167e+1, 3.267e-1
3.168e+1, 3.273e-1
3.169e+1, 3.279e-1
3.170e+1, 3.285e-1
3.171e+1, 3.291e-1
3.172e+1, 3.297e-1
3.173e+1, 3.303e-1
3.174e+1, 3.309e-1
3.175e+1, 3.315e-1
3.176e+1, 3.321e-1
3.177e+1, 3.327e-1
3.178e+1, 3.332e-1
3.179e+1, 3.338e-1
3.180e+1, 3.344e-1
3.181e+1, 3.350e-1
3.182e+1, 3.356e-1
3.183e+1, 3.362e-1
3.184e+1, 3.368e-1
3.185e+1, 3.374e-1
3.186e+1, 3.380e-1
3.187e+1, 3.386e-1
3.188e+1, 3.392e-1
3.189e+1, 3.398e-1
3.190e+1, 3.403e-1
3.191e+1, 3.409e-1
3.192e+1, 3.415e-1
3.193e+1, 3.421e-1
3.194e+1, 3.427e-1
3.195e+1, 3.433e-1
3.196e+1, 3.438e-1
3.197e+1, 3.444e-1
3.198e+1, 3.450e-1
3.199e+1, 3.456e-1
3.200e+1, 3.462e-1
3.201e+1, 3.468e-1
3.202e+1, 3.473e-1
3.203e+1, 3.479e-1
3.204e+1, 3.485e-1
3.205e+1, 3.491e-1
3.206e+1, 3.497e-1
3.207e+1, 3.503e-1
3.208e+1, 3.508e-1
3.209e+1, 3.514e-1
3.210e+1, 3.520e-1
3.211e+1, 3.526e-1
3.212e+1, 3.532e-1
3.213e+1, 3.537e-1
3.214e+1, 3.543e-1
3.215e+1, 3.549e-1
3.216e+1, 3.555e-1
3.217e+1, 3.561e-1
3.218e+1, 3.566e-1
3.219e+1, 3.572e-1
3.220e+1, 3.578e-1
3.221e+1, 3.583e-1
3.222e+1, 3.589e-1
3.223e+1, 3.595e-1
3.224e+1, 3.601e-1
3.225e+1, 3.606e-1
3.226e+1, 3.612e-1
3.227e+1, 3.618e-1
3.228e+1, 3.624e-1
3.229e+1, 3.629e-1
3.230e+1, 3.635e-1
3.231e+1, 3.641e-1
3.232e+1, 3.647e-1
3.233e+1, 3.652e-1
3.234e+1, 3.658e-1
3.235e+1, 3.664e-1
3.236e+1, 3.670e-1
3.237e+1, 3.675e-1
3.238e+1, 3.681e-1
3.239e+1, 3.687e-1
3.240e+1, 3.692e-1
3.241e+1, 3.698e-1
3.242e+1, 3.704e-1
3.243e+1, 3.709e-1
3.244e+1, 3.715e-1
3.245e+1, 3.721e-1
3.246e+1, 3.726e-1
3.247e+1, 3.732e-1
3.248e+1, 3.738e-1
3.249e+1, 3.743e-1
3.250e+1, 3.749e-1
3.251e+1, 3.755e-1
3.252e+1, 3.760e-1
3.253e+1, 3.766e-1
3.254e+1, 3.772e-1
3.255e+1, 3.777e-1
3.256e+1, 3.783e-1
3.257e+1, 3.789e-1
3.258e+1, 3.794e-1
3.259e+1, 3.800e-1
3.260e+1, 3.805e-1
3.261e+1, 3.811e-1
3.262e+1, 3.817e-1
3.263e+1, 3.822e-1
3.264e+1, 3.828e-1
3.265e+1, 3.833e-1
3.266e+1, 3.839e-1
3.267e+1, 3.845e-1
3.268e+1, 3.850e-1
3.269e+1, 3.856e-1
3.270e+1, 3.861e-1
3.271e+1, 3.867e-1
3.272e+1, 3.873e-1
3.273e+1, 3.878e-1
3.274e+1, 3.884e-1
3.275e+1, 3.889e-1
3.276e+1, 3.895e-1
3.277e+1, 3.900e-1
3.278e+1, 3.906e-1
3.279e+1, 3.911e-1
3.280e+1, 3.917e-1
3.281e+1, 3.922e-1
3.282e+1, 3.928e-1
3.283e+1, 3.933e-1
3.284e+1, 3.939e-1
3.285e+1, 3.945e-1
3.286e+1, 3.950e-1
3.287e+1, 3.955e-1
3.288e+1, 3.961e-1
3.289e+1, 3.966e-1
3.290e+1, 3.972e-1
3.291e+1, 3.977e-1
3.292e+1, 3.983e-1
3.293e+1, 3.988e-1
3.294e+1, 3.994e-1
3.295e+1, 3.999e-1
3.296e+1, 4.005e-1
3.297e+1, 4.010e-1
3.298e+1, 4.016e-1
3.299e+1, 4.021e-1
3.300e+1, 4.027e-1
3.301e+1, 4.032e-1
3.302e+1, 4.038e-1
3.303e+1, 4.043e-1
3.304e+1, 4.048e-1
3.305e+1, 4.054e-1
3.306e+1, 4.059e-1
3.307e+1, 4.065e-1
3.308e+1, 4.070e-1
3.309e+1, 4.075e-1
3.310e+1, 4.081e-1
3.311e+1, 4.086e-1
3.312e+1, 4.092e-1
3.313e+1, 4.097e-1
3.314e+1, 4.102e-1
3.315e+1, 4.108e-1
3.316e+1, 4.113e-1
3.317e+1, 4.118e-1
3.318e+1, 4.124e-1
3.319e+1, 4.129e-1
3.320e+1, 4.135e-1
3.321e+1, 4.140e-1
3.322e+1, 4.145e-1
3.323e+1, 4.151e-1
3.324e+1, 4.156e-1
3.325e+1, 4.161e-1
3.326e+1, 4.167e-1
3.327e+1, 4.172e-1
3.328e+1, 4.177e-1
3.329e+1, 4.183e-1
3.330e+1, 4.188e-1
3.331e+1, 4.193e-1
3.332e+1, 4.199e-1
3.333e+1, 4.204e-1
3.334e+1, 4.209e-1
3.335e+1, 4.214e-1
3.336e+1, 4.220e-1
3.337e+1, 4.225e-1
3.338e+1, 4.230e-1
3.339e+1, 4.235e-1
3.340e+1, 4.241e-1
3.341e+1, 4.246e-1
3.342e+1, 4.251e-1
3.343e+1, 4.257e-1
3.344e+1, 4.262e-1
3.345e+1, 4.267e-1
3.346e+1, 4.272e-1
3.347e+1, 4.278e-1
3.348e+1, 4.283e-1
3.349e+1, 4.288e-1
3.350e+1, 4.293e-1
3.351e+1, 4.298e-1
3.352e+1, 4.304e-1
3.353e+1, 4.309e-1
3.354e+1, 4.314e-1
3.355e+1, 4.319e-1
3.356e+1, 4.324e-1
3.357e+1, 4.330e-1
3.358e+1, 4.335e-1
3.359e+1, 4.340e-1
3.360e+1, 4.345e-1
3.361e+1, 4.350e-1
3.362e+1, 4.356e-1
3.363e+1, 4.361e-1
3.364e+1, 4.366e-1
3.365e+1, 4.371e-1
3.366e+1, 4.376e-1
3.367e+1, 4.381e-1
3.368e+1, 4.386e-1
3.369e+1, 4.392e-1
3.370e+1, 4.397e-1
3.371e+1, 4.402e-1
3.372e+1, 4.407e-1
3.373e+1, 4.412e-1
3.374e+1, 4.417e-1
3.375e+1, 4.422e-1
3.376e+1, 4.428e-1
3.377e+1, 4.433e-1
3.378e+1, 4.438e-1
3.379e+1, 4.443e-1
3.380e+1, 4.448e-1
3.381e+1, 4.453e-1
3.382e+1, 4.458e-1
3.383e+1, 4.463e-1
3.384e+1, 4.468e-1
3.385e+1, 4.473e-1
3.386e+1, 4.478e-1
3.387e+1, 4.484e-1
3.388e+1, 4.489e-1
3.389e+1, 4.494e-1
3.390e+1, 4.499e-1
3.391e+1, 4.504e-1
3.392e+1, 4.509e-1
3.393e+1, 4.514e-1
3.394e+1, 4.519e-1
3.395e+1, 4.524e-1
3.396e+1, 4.529e-1
3.397e+1, 4.534e-1
3.398e+1, 4.539e-1
3.399e+1, 4.544e-1
3.400e+1, 4.549e-1
3.401e+1, 4.554e-1
3.402e+1, 4.559e-1
3.403e+1, 4.564e-1
3.404e+1, 4.569e-1
3.405e+1, 4.575e-1
3.406e+1, 4.580e-1
3.407e+1, 4.585e-1
3.408e+1, 4.590e-1
3.409e+1, 4.595e-1
3.410e+1, 4.600e-1
3.411e+1, 4.605e-1
3.412e+1, 4.610e-1
3.413e+1, 4.615e-1
3.414e+1, 4.620e-1
3.415e+1, 4.625e-1
3.416e+1, 4.630e-1
3.417e+1, 4.635e-1
3.418e+1, 4.640e-1
3.419e+1, 4.645e-1
3.420e+1, 4.650e-1
3.421e+1, 4.655e-1
3.422e+1, 4.660e-1
3.423e+1, 4.665e-1
3.424e+1, 4.670e-1
3.425e+1, 4.675e-1
3.426e+1, 4.680e-1
3.427e+1, 4.685e-1
3.428e+1, 4.690e-1
3.429e+1, 4.695e-1
3.430e+1, 4.700e-1
3.431e+1, 4.705e-1
3.432e+1, 4.710e-1
3.433e+1, 4.715e-1
3.434e+1, 4.720e-1
3.435e+1, 4.725e-1
3.436e+1, 4.730e-1
3.437e+1, 4.735e-1
3.438e+1, 4.740e-1
3.439e+1, 4.745e-1
3.440e+1, 4.750e-1
3.441e+1, 4.755e-1
3.442e+1, 4.760e-1
3.443e+1, 4.765e-1
3.444e+1, 4.770e-1
3.445e+1, 4.775e-1
3.446e+1, 4.780e-1
3.447e+1, 4.785e-1
3.448e+1, 4.790e-1
3.449e+1, 4.795e-1
3.450e+1, 4.800e-1
3.451e+1, 4.805e-1
3.452e+1, 4.810e-1
3.453e+1, 4.815e-1
3.454e+1, 4.820e-1
3.455e+1, 4.825e-1
3.456e+1, 4.830e-1
3.457e+1, 4.835e-1
3.458e+1, 4.840e-1
3.459e+1, 4.845e-1
3.460e+1, 4.850e-1
3.461e+1, 4.855e-1
3.462e+1, 4.860e-1
3.463e+1, 4.865e-1
3.464e+1, 4.870e-1
3.465e+1, 4.875e-1
3.466e+1, 4.880e-1
3.467e+1, 4.885e-1
3.468e+1, 4.890e-1
3.469e+1, 4.895e-1
3.470e+1, 4.900e-1
3.471e+1, 4.905e-1
3.472e+1, 4.910e-1
3.473e+1, 4.915e-1
3.474e+1, 4.920e-1
3.475e+1, 4.925e-1
3.476e+1, 4.931e-1
3.477e+1, 4.936e-1
3.478e+1, 4.941e-1
3.479e+1, 4.946e-1
3.480e+1, 4.951e-1
3.481e+1, 4.956e-1
3.482e+1, 4.961e-1
3.483e+1, 4.966e-1
3.484e+1, 4.971e-1
3.485e+1, 4.976e-1
3.486e+1, 4.981e-1
3.487e+1, 4.986e-1
3.488e+1, 4.991e-1
3.489e+1, 4.996e-1
3.490e+1, 5.001e-1
3.491e+1, 5.006e-1
3.492e+1, 5.012e-1
3.493e+1, 5.017e-1
3.494e+1, 5.022e-1
3.495e+1, 5.027e-1
3.496e+1, 5.032e-1
3.497e+1, 5.037e-1
3.498e+1, 5.042e-1
3.499e+1, 5.047e-1
3.500e+1, 5.052e-1
3.501e+1, 5.057e-1
3.502e+1, 5.063e-1
3.503e+1, 5.068e-1
3.504e+1, 5.073e-1
3.505e+1, 5.078e-1
3.506e+1, 5.083e-1
3.507e+1, 5.088e-1
3.508e+1, 5.093e-1
3.509e+1, 5.098e-1
3.510e+1, 5.104e-1
3.511e+1, 5.109e-1
3.512e+1, 5.114e-1
3.513e+1, 5.119e-1
3.514e+1, 5.124e-1
3.515e+1, 5.129e-1
3.516e+1, 5.135e-1
3.517e+1, 5.140e-1
3.518e+1, 5.145e-1
3.519e+1, 5.150e-1
3.520e+1, 5.155e-1
3.521e+1, 5.160e-1
3.522e+1, 5.165e-1
3.523e+1, 5.171e-1
3.524e+1, 5.176e-1
3.525e+1, 5.181e-1
3.526e+1, 5.186e-1
3.527e+1, 5.191e-1
3.528e+1, 5.197e-1
3.529e+1, 5.202e-1
3.530e+1, 5.207e-1
3.531e+1, 5.212e-1
3.532e+1, 5.217e-1
3.533e+1, 5.223e-1
3.534e+1, 5.228e-1
3.535e+1, 5.233e-1
3.536e+1, 5.238e-1
3.537e+1, 5.244e-1
3.538e+1, 5.249e-1
3.539e+1, 5.254e-1
3.540e+1, 5.259e-1
3.541e+1, 5.265e-1
3.542e+1, 5.270e-1
3.543e+1, 5.275e-1
3.544e+1, 5.280e-1
3.545e+1, 5.286e-1
3.546e+1, 5.291e-1
3.547e+1, 5.296e-1
3.548e+1, 5.302e-1
3.549e+1, 5.307e-1
3.550e+1, 5.312e-1
3.551e+1, 5.317e-1
3.552e+1, 5.323e-1
3.553e+1, 5.328e-1
3.554e+1, 5.333e-1
3.555e+1, 5.338e-1
3.556e+1, 5.344e-1
3.557e+1, 5.349e-1
3.558e+1, 5.354e-1
3.559e+1, 5.360e-1
3.560e+1, 5.365e-1
3.561e+1, 5.370e-1
3.562e+1, 5.376e-1
3.563e+1, 5.381e-1
3.564e+1, 5.386e-1
3.565e+1, 5.392e-1
3.566e+1, 5.397e-1
3.567e+1, 5.403e-1
3.568e+1, 5.408e-1
3.569e+1, 5.413e-1
3.570e+1, 5.419e-1
3.571e+1, 5.424e-1
3.572e+1, 5.429e-1
3.573e+1, 5.435e-1
3.574e+1, 5.440e-1
3.575e+1, 5.446e-1
3.576e+1, 5.451e-1
3.577e+1, 5.456e-1
3.578e+1, 5.462e-1
3.579e+1, 5.467e-1
3.580e+1, 5.473e-1
3.581e+1, 5.478e-1
3.582e+1, 5.483e-1
3.583e+1, 5.489e-1
3.584e+1, 5.494e-1
3.585e+1, 5.500e-1
3.586e+1, 5.505e-1
3.587e+1, 5.511e-1
3.588e+1, 5.516e-1
3.589e+1, 5.522e-1
3.590e+1, 5.527e-1
3.591e+1, 5.533e-1
3.592e+1, 5.538e-1
3.593e+1, 5.544e-1
3.594e+1, 5.549e-1
3.595e+1, 5.555e-1
3.596e+1, 5.560e-1
3.597e+1, 5.566e-1
3.598e+1, 5.571e-1
3.599e+1, 5.577e-1
3.600e+1, 5.582e-1
3.601e+1, 5.588e-1
3.602e+1, 5.593e-1
3.603e+1, 5.599e-1
3.604e+1, 5.604e-1
3.605e+1, 5.610e-1
3.606e+1, 5.615e-1
3.607e+1, 5.621e-1
3.608e+1, 5.627e-1
3.609e+1, 5.632e-1
3.610e+1, 5.638e-1
3.611e+1, 5.643e-1
3.612e+1, 5.649e-1
3.613e+1, 5.654e-1
3.614e+1, 5.660e-1
3.615e+1, 5.665e-1
3.616e+1, 5.671e-1
3.617e+1, 5.677e-1
3.618e+1, 5.682e-1
3.619e+1, 5.688e-1
3.620e+1, 5.694e-1
3.621e+1, 5.699e-1
3.622e+1, 5.705e-1
3.623e+1, 5.711e-1
3.624e+1, 5.716e-1
3.625e+1, 5.722e-1
3.626e+1, 5.728e-1
3.627e+1, 5.733e-1
3.628e+1, 5.739e-1
3.629e+1, 5.744e-1
3.630e+1, 5.750e-1
3.631e+1, 5.756e-1
3.632e+1, 5.762e-1
3.633e+1, 5.767e-1
3.634e+1, 5.773e-1
3.635e+1, 5.779e-1
3.636e+1, 5.784e-1
3.637e+1, 5.790e-1
3.638e+1, 5.796e-1
3.639e+1, 5.801e-1
3.640e+1, 5.807e-1
3.641e+1, 5.813e-1
3.642e+1, 5.819e-1
3.643e+1, 5.824e-1
3.644e+1, 5.830e-1
3.645e+1, 5.836e-1
3.646e+1, 5.842e-1
3.647e+1, 5.847e-1
3.648e+1, 5.853e-1
3.649e+1, 5.859e-1
3.650e+1, 5.865e-1
3.651e+1, 5.871e-1
3.652e+1, 5.876e-1
3.653e+1, 5.882e-1
3.654e+1, 5.888e-1
3.655e+1, 5.894e-1
3.656e+1, 5.900e-1
3.657e+1, 5.905e-1
3.658e+1, 5.911e-1
3.659e+1, 5.917e-1
3.660e+1, 5.923e-1
3.661e+1, 5.929e-1
3.662e+1, 5.935e-1
3.663e+1, 5.941e-1
3.664e+1, 5.946e-1
3.665e+1, 5.952e-1
3.666e+1, 5.958e-1
3.667e+1, 5.964e-1
3.668e+1, 5.970e-1
3.669e+1, 5.976e-1
3.670e+1, 5.982e-1
3.671e+1, 5.988e-1
3.672e+1, 5.994e-1
3.673e+1, 5.999e-1
3.674e+1, 6.005e-1
3.675e+1, 6.011e-1
3.676e+1, 6.017e-1
3.677e+1, 6.023e-1
3.678e+1, 6.029e-1
3.679e+1, 6.035e-1
3.680e+1, 6.041e-1
3.681e+1, 6.047e-1
3.682e+1, 6.053e-1
3.683e+1, 6.059e-1
3.684e+1, 6.065e-1
3.685e+1, 6.071e-1
3.686e+1, 6.077e-1
3.687e+1, 6.083e-1
3.688e+1, 6.089e-1
3.689e+1, 6.095e-1
3.690e+1, 6.101e-1
3.691e+1, 6.107e-1
3.692e+1, 6.113e-1
3.693e+1, 6.119e-1
3.694e+1, 6.125e-1
3.695e+1, 6.131e-1
3.696e+1, 6.137e-1
3.697e+1, 6.143e-1
3.698e+1, 6.149e-1
3.699e+1, 6.155e-1
3.700e+1, 6.162e-1
3.701e+1, 6.168e-1
3.702e+1, 6.174e-1
3.703e+1, 6.180e-1
3.704e+1, 6.186e-1
3.705e+1, 6.192e-1
3.706e+1, 6.198e-1
3.707e+1, 6.204e-1
3.708e+1, 6.210e-1
3.709e+1, 6.217e-1
3.710e+1, 6.223e-1
3.711e+1, 6.229e-1
3.712e+1, 6.235e-1
3.713e+1, 6.241e-1
3.714e+1, 6.247e-1
3.715e+1, 6.254e-1
3.716e+1, 6.260e-1
3.717e+1, 6.266e-1
3.718e+1, 6.272e-1
3.719e+1, 6.278e-1
3.720e+1, 6.284e-1
3.721e+1, 6.291e-1
3.722e+1, 6.297e-1
3.723e+1, 6.303e-1
3.724e+1, 6.309e-1
3.725e+1, 6.316e-1
3.726e+1, 6.322e-1
3.727e+1, 6.328e-1
3.728e+1, 6.334e-1
3.729e+1, 6.341e-1
3.730e+1, 6.347e-1
3.731e+1, 6.353e-1
3.732e+1, 6.360e-1
3.733e+1, 6.366e-1
3.734e+1, 6.372e-1
3.735e+1, 6.379e-1
3.736e+1, 6.385e-1
3.737e+1, 6.391e-1
3.738e+1, 6.398e-1
3.739e+1, 6.404e-1
3.740e+1, 6.410e-1
3.741e+1, 6.417e-1
3.742e+1, 6.423e-1
3.743e+1, 6.429e-1
3.744e+1, 6.436e-1
3.745e+1, 6.442e-1
3.746e+1, 6.448e-1
3.747e+1, 6.455e-1
3.748e+1, 6.461e-1
3.749e+1, 6.468e-1
3.750e+1, 6.474e-1
3.751e+1, 6.480e-1
3.752e+1, 6.487e-1
3.753e+1, 6.493e-1
3.754e+1, 6.500e-1
3.755e+1, 6.506e-1
3.756e+1, 6.513e-1
3.757e+1, 6.519e-1
3.758e+1, 6.526e-1
3.759e+1, 6.532e-1
3.760e+1, 6.539e-1
3.761e+1, 6.545e-1
3.762e+1, 6.552e-1
3.763e+1, 6.558e-1
3.764e+1, 6.565e-1
3.765e+1, 6.571e-1
3.766e+1, 6.577e-1
3.767e+1, 6.584e-1
3.768e+1, 6.591e-1
3.769e+1, 6.597e-1
3.770e+1, 6.604e-1
3.771e+1, 6.610e-1
3.772e+1, 6.617e-1
3.773e+1, 6.623e-1
3.774e+1, 6.630e-1
3.775e+1, 6.637e-1
3.776e+1, 6.643e-1
3.777e+1, 6.650e-1
3.778e+1, 6.656e-1
3.779e+1, 6.663e-1
3.780e+1, 6.670e-1
3.781e+1, 6.676e-1
3.782e+1, 6.683e-1
3.783e+1, 6.690e-1
3.784e+1, 6.696e-1
3.785e+1, 6.703e-1
3.786e+1, 6.710e-1
3.787e+1, 6.716e-1
3.788e+1, 6.723e-1
3.789e+1, 6.730e-1
3.790e+1, 6.736e-1
3.791e+1, 6.743e-1
3.792e+1, 6.750e-1
3.793e+1, 6.756e-1
3.794e+1, 6.763e-1
3.795e+1, 6.770e-1
3.796e+1, 6.777e-1
3.797e+1, 6.783e-1
3.798e+1, 6.790e-1
3.799e+1, 6.797e-1
3.800e+1, 6.804e-1
3.801e+1, 6.810e-1
3.802e+1, 6.817e-1
3.803e+1, 6.824e-1
3.804e+1, 6.831e-1
3.805e+1, 6.838e-1
3.806e+1, 6.844e-1
3.807e+1, 6.851e-1
3.808e+1, 6.858e-1
3.809e+1, 6.865e-1
3.810e+1, 6.872e-1
3.811e+1, 6.879e-1
3.812e+1, 6.885e-1
3.813e+1, 6.892e-1
3.814e+1, 6.899e-1
3.815e+1, 6.906e-1
3.816e+1, 6.913e-1
3.817e+1, 6.920e-1
3.818e+1, 6.927e-1
3.819e+1, 6.933e-1
3.820e+1, 6.940e-1
3.821e+1, 6.947e-1
3.822e+1, 6.954e-1
3.823e+1, 6.961e-1
3.824e+1, 6.968e-1
3.825e+1, 6.975e-1
3.826e+1, 6.982e-1
3.827e+1, 6.989e-1
3.828e+1, 6.996e-1
3.829e+1, 7.003e-1
3.830e+1, 7.010e-1
3.831e+1, 7.017e-1
3.832e+1, 7.024e-1
3.833e+1, 7.031e-1
3.834e+1, 7.038e-1
3.835e+1, 7.045e-1
3.836e+1, 7.052e-1
3.837e+1, 7.059e-1
3.838e+1, 7.066e-1
3.839e+1, 7.073e-1
3.840e+1, 7.080e-1
3.841e+1, 7.087e-1
3.842e+1, 7.094e-1
3.843e+1, 7.101e-1
3.844e+1, 7.108e-1
3.845e+1, 7.115e-1
3.846e+1, 7.122e-1
3.847e+1, 7.129e-1
3.848e+1, 7.136e-1
3.849e+1, 7.144e-1
3.850e+1, 7.151e-1
3.851e+1, 7.158e-1
3.852e+1, 7.165e-1
3.853e+1, 7.172e-1
3.854e+1, 7.179e-1
3.855e+1, 7.186e-1
3.856e+1, 7.193e-1
3.857e+1, 7.201e-1
3.858e+1, 7.208e-1
3.859e+1, 7.215e-1
3.860e+1, 7.222e-1
3.861e+1, 7.229e-1
3.862e+1, 7.236e-1
3.863e+1, 7.244e-1
3.864e+1, 7.251e-1
3.865e+1, 7.258e-1
3.866e+1, 7.265e-1
3.867e+1, 7.272e-1
3.868e+1, 7.280e-1
3.869e+1, 7.287e-1
3.870e+1, 7.294e-1
3.871e+1, 7.301e-1
3.872e+1, 7.309e-1
3.873e+1, 7.316e-1
3.874e+1, 7.323e-1
3.875e+1, 7.330e-1
3.876e+1, 7.338e-1
3.877e+1, 7.345e-1
3.878e+1, 7.352e-1
3.879e+1, 7.359e-1
3.880e+1, 7.367e-1
3.881e+1, 7.374e-1
3.882e+1, 7.381e-1
3.883e+1, 7.389e-1
3.884e+1, 7.396e-1
3.885e+1, 7.403e-1
3.886e+1, 7.411e-1
3.887e+1, 7.418e-1
3.888e+1, 7.425e-1
3.889e+1, 7.433e-1
3.890e+1, 7.440e-1
3.891e+1, 7.447e-1
3.892e+1, 7.455e-1
3.893e+1, 7.462e-1
3.894e+1, 7.469e-1
3.895e+1, 7.477e-1
3.896e+1, 7.484e-1
3.897e+1, 7.492e-1
3.898e+1, 7.499e-1
3.899e+1, 7.506e-1
3.900e+1, 7.514e-1
3.901e+1, 7.521e-1
3.902e+1, 7.529e-1
3.903e+1, 7.536e-1
3.904e+1, 7.543e-1
3.905e+1, 7.551e-1
3.906e+1, 7.558e-1
3.907e+1, 7.566e-1
3.908e+1, 7.573e-1
3.909e+1, 7.581e-1
3.910e+1, 7.588e-1
3.911e+1, 7.596e-1
3.912e+1, 7.603e-1
3.913e+1, 7.611e-1
3.914e+1, 7.618e-1
3.915e+1, 7.625e-1
3.916e+1, 7.633e-1
3.917e+1, 7.641e-1
3.918e+1, 7.648e-1
3.919e+1, 7.656e-1
3.920e+1, 7.663e-1
3.921e+1, 7.671e-1
3.922e+1, 7.678e-1
3.923e+1, 7.685e-1
3.924e+1, 7.693e-1
3.925e+1, 7.700e-1
3.926e+1, 7.708e-1
3.927e+1, 7.715e-1
3.928e+1, 7.723e-1
3.929e+1, 7.731e-1
3.930e+1, 7.738e-1
3.931e+1, 7.746e-1
3.932e+1, 7.753e-1
3.933e+1, 7.761e-1
3.934e+1, 7.768e-1
3.935e+1, 7.776e-1
3.936e+1, 7.783e-1
3.937e+1, 7.791e-1
3.938e+1, 7.799e-1
3.939e+1, 7.806e-1
3.940e+1, 7.814e-1
3.941e+1, 7.821e-1
3.942e+1, 7.829e-1
3.943e+1, 7.836e-1
3.944e+1, 7.844e-1
3.945e+1, 7.852e-1
3.946e+1, 7.859e-1
3.947e+1, 7.867e-1
3.948e+1, 7.874e-1
3.949e+1, 7.882e-1
3.950e+1, 7.890e-1
3.951e+1, 7.897e-1
3.952e+1, 7.905e-1
3.953e+1, 7.913e-1
3.954e+1, 7.920e-1
3.955e+1, 7.928e-1
3.956e+1, 7.935e-1
3.957e+1, 7.943e-1
3.958e+1, 7.951e-1
3.959e+1, 7.958e-1
3.960e+1, 7.966e-1
3.961e+1, 7.974e-1
3.962e+1, 7.981e-1
3.963e+1, 7.989e-1
3.964e+1, 7.997e-1
3.965e+1, 8.004e-1
3.966e+1, 8.012e-1
3.967e+1, 8.019e-1
3.968e+1, 8.027e-1
3.969e+1, 8.035e-1
3.970e+1, 8.043e-1
3.971e+1, 8.050e-1
3.972e+1, 8.058e-1
3.973e+1, 8.066e-1
3.974e+1, 8.073e-1
3.975e+1, 8.081e-1
3.976e+1, 8.089e-1
3.977e+1, 8.096e-1
3.978e+1, 8.104e-1
3.979e+1, 8.112e-1
3.980e+1, 8.119e-1
3.981e+1, 8.127e-1
3.982e+1, 8.135e-1
3.983e+1, 8.142e-1
3.984e+1, 8.150e-1
3.985e+1, 8.158e-1
3.986e+1, 8.165e-1
3.987e+1, 8.173e-1
3.988e+1, 8.181e-1
3.989e+1, 8.188e-1
3.990e+1, 8.196e-1
3.991e+1, 8.204e-1
3.992e+1, 8.212e-1
3.993e+1, 8.219e-1
3.994e+1, 8.227e-1
3.995e+1, 8.235e-1
3.996e+1, 8.242e-1
3.997e+1, 8.250e-1
3.998e+1, 8.258e-1
3.999e+1, 8.266e-1
4.000e+1, 8.273e-1
4.001e+1, 8.281e-1
4.002e+1, 8.289e-1
4.003e+1, 8.296e-1
4.004e+1, 8.304e-1
4.005e+1, 8.312e-1
4.006e+1, 8.320e-1
4.007e+1, 8.327e-1
4.008e+1, 8.335e-1
4.009e+1, 8.343e-1
4.010e+1, 8.350e-1
4.011e+1, 8.358e-1
4.012e+1, 8.366e-1
4.013e+1, 8.374e-1
4.014e+1, 8.381e-1
4.015e+1, 8.389e-1
4.016e+1, 8.397e-1
4.017e+1, 8.405e-1
4.018e+1, 8.412e-1
4.019e+1, 8.420e-1
4.020e+1, 8.428e-1
4.021e+1, 8.435e-1
4.022e+1, 8.443e-1
4.023e+1, 8.451e-1
4.024e+1, 8.459e-1
4.025e+1, 8.466e-1
4.026e+1, 8.474e-1
4.027e+1, 8.482e-1
4.028e+1, 8.489e-1
4.029e+1, 8.497e-1
4.030e+1, 8.505e-1
4.031e+1, 8.513e-1
4.032e+1, 8.520e-1
4.033e+1, 8.528e-1
4.034e+1, 8.536e-1
4.035e+1, 8.543e-1
4.036e+1, 8.551e-1
4.037e+1, 8.559e-1
4.038e+1, 8.567e-1
4.039e+1, 8.574e-1
4.040e+1, 8.582e-1
4.041e+1, 8.590e-1
4.042e+1, 8.598e-1
4.043e+1, 8.605e-1
4.044e+1, 8.613e-1
4.045e+1, 8.621e-1
4.046e+1, 8.628e-1
4.047e+1, 8.636e-1
4.048e+1, 8.644e-1
4.049e+1, 8.651e-1
4.050e+1, 8.659e-1
4.051e+1, 8.667e-1
4.052e+1, 8.674e-1
4.053e+1, 8.682e-1
4.054e+1, 8.690e-1
4.055e+1, 8.697e-1
4.056e+1, 8.705e-1
4.057e+1, 8.713e-1
4.058e+1, 8.721e-1
4.059e+1, 8.728e-1
4.060e+1, 8.736e-1
4.061e+1, 8.744e-1
4.062e+1, 8.751e-1
4.063e+1, 8.759e-1
4.064e+1, 8.767e-1
4.065e+1, 8.774e-1
4.066e+1, 8.782e-1
4.067e+1, 8.790e-1
4.068e+1, 8.797e-1
4.069e+1, 8.805e-1
4.070e+1, 8.813e-1
4.071e+1, 8.820e-1
4.072e+1, 8.828e-1
4.073e+1, 8.835e-1
4.074e+1, 8.843e-1
4.075e+1, 8.851e-1
4.076e+1, 8.858e-1
4.077e+1, 8.866e-1
4.078e+1, 8.874e-1
4.079e+1, 8.881e-1
4.080e+1, 8.889e-1
4.081e+1, 8.896e-1
4.082e+1, 8.904e-1
4.083e+1, 8.912e-1
4.084e+1, 8.919e-1
4.085e+1, 8.927e-1
4.086e+1, 8.934e-1
4.087e+1, 8.942e-1
4.088e+1, 8.950e-1
4.089e+1, 8.957e-1
4.090e+1, 8.965e-1
4.091e+1, 8.972e-1
4.092e+1, 8.980e-1
4.093e+1, 8.987e-1
4.094e+1, 8.995e-1
4.095e+1, 8.171e-1
4.096e+1, 8.101e-1
4.097e+1, 8.049e-1
4.098e+1, 8.006e-1
4.099e+1, 7.967e-1
4.100e+1, 7.931e-1
4.101e+1, 7.897e-1
4.102e+1, 7.866e-1
4.103e+1, 7.837e-1
4.104e+1, 7.809e-1
4.105e+1, 7.782e-1
4.106e+1, 7.756e-1
4.107e+1, 7.732e-1
4.108e+1, 7.708e-1
4.109e+1, 7.686e-1
4.110e+1, 7.664e-1
4.111e+1, 7.642e-1
4.112e+1, 7.621e-1
4.113e+1, 7.601e-1
4.114e+1, 7.581e-1
4.115e+1, 7.562e-1
4.116e+1, 7.543e-1
4.117e+1, 7.524e-1
4.118e+1, 7.506e-1
4.119e+1, 7.488e-1
4.120e+1, 7.470e-1
4.121e+1, 7.453e-1
4.122e+1, 7.436e-1
4.123e+1, 7.419e-1
4.124e+1, 7.403e-1
4.125e+1, 7.386e-1
4.126e+1, 7.370e-1
4.127e+1, 7.355e-1
4.128e+1, 7.339e-1
4.129e+1, 7.324e-1
4.130e+1, 7.309e-1
4.131e+1, 7.294e-1
4.132e+1, 7.279e-1
4.133e+1, 7.264e-1
4.134e+1, 7.250e-1
4.135e+1, 7.235e-1
4.136e+1, 7.221e-1
4.137e+1, 7.207e-1
4.138e+1, 7.194e-1
4.139e+1, 7.180e-1
4.140e+1, 7.166e-1
4.141e+1, 7.153e-1
4.142e+1, 7.140e-1
4.143e+1, 7.127e-1
4.144e+1, 7.114e-1
4.145e+1, 7.101e-1
4.146e+1, 7.088e-1
4.147e+1, 7.075e-1
4.148e+1, 7.062e-1
4.149e+1, 7.046e-1
4.150e+1, 7.029e-1
4.151e+1, 7.014e-1
4.152e+1, 7.001e-1
4.153e+1, 6.989e-1
4.154e+1, 6.975e-1
4.155e+1, 6.963e-1
4.156e+1, 6.951e-1
4.157e+1, 6.940e-1
4.158e+1, 6.928e-1
4.159e+1, 6.916e-1
4.160e+1, 6.904e-1
4.161e+1, 6.892e-1
4.162e+1, 6.880e-1
4.163e+1, 6.868e-1
4.164e+1, 6.856e-1
4.165e+1, 6.844e-1
4.166e+1, 6.832e-1
4.167e+1, 6.821e-1
4.168e+1, 6.809e-1
4.169e+1, 6.797e-1
4.170e+1, 6.785e-1
4.171e+1, 6.774e-1
4.172e+1, 6.762e-1
4.173e+1, 6.751e-1
4.174e+1, 6.739e-1
4.175e+1, 6.728e-1
4.176e+1, 6.716e-1
4.177e+1, 6.705e-1
4.178e+1, 6.693e-1
4.179e+1, 6.682e-1
4.180e+1, 6.670e-1
4.181e+1, 6.659e-1
4.182e+1, 6.647e-1
4.183e+1, 6.636e-1
4.184e+1, 6.625e-1
4.185e+1, 6.614e-1
4.186e+1, 6.603e-1
4.187e+1, 6.592e-1
4.188e+1, 6.580e-1
4.189e+1, 6.570e-1
4.190e+1, 6.558e-1
4.191e+1, 6.548e-1
4.192e+1, 6.537e-1
4.193e+1, 6.526e-1
4.194e+1, 6.515e-1
4.195e+1, 6.504e-1
4.196e+1, 6.493e-1
4.197e+1, 6.482e-1
4.198e+1, 6.472e-1
4.199e+1, 6.461e-1
4.200e+1, 6.450e-1
4.201e+1, 6.440e-1
4.202e+1, 6.429e-1
4.203e+1, 6.419e-1
4.204e+1, 6.408e-1
4.205e+1, 6.398e-1
4.206e+1, 6.388e-1
4.207e+1, 6.378e-1
4.208e+1, 6.368e-1
4.209e+1, 6.358e-1
4.210e+1, 6.348e-1
4.211e+1, 6.338e-1
4.212e+1, 6.328e-1
4.213e+1, 6.318e-1
4.214e+1, 6.309e-1
4.215e+1, 6.299e-1
4.216e+1, 6.289e-1
4.217e+1, 6.279e-1
4.218e+1, 6.269e-1
4.219e+1, 6.260e-1
4.220e+1, 6.250e-1
4.221e+1, 6.240e-1
4.222e+1, 6.230e-1
4.223e+1, 6.220e-1
4.224e+1, 6.211e-1
4.225e+1, 6.201e-1
4.226e+1, 6.191e-1
4.227e+1, 6.182e-1
4.228e+1, 6.172e-1
4.229e+1, 6.162e-1
4.230e+1, 6.153e-1
4.231e+1, 6.143e-1
4.232e+1, 6.133e-1
4.233e+1, 6.124e-1
4.234e+1, 6.114e-1
4.235e+1, 6.105e-1
4.236e+1, 6.096e-1
4.237e+1, 6.086e-1
4.238e+1, 6.077e-1
4.239e+1, 6.067e-1
4.240e+1, 6.058e-1
4.241e+1, 6.049e-1
4.242e+1, 6.039e-1
4.243e+1, 6.030e-1
4.244e+1, 6.020e-1
4.245e+1, 6.011e-1
4.246e+1, 6.002e-1
4.247e+1, 5.993e-1
4.248e+1, 5.984e-1
4.249e+1, 5.974e-1
4.250e+1, 5.965e-1
4.251e+1, 5.956e-1
4.252e+1, 5.947e-1
4.253e+1, 5.938e-1
4.254e+1, 5.929e-1
4.255e+1, 5.920e-1
4.256e+1, 5.911e-1
4.257e+1, 5.902e-1
4.258e+1, 5.893e-1
4.259e+1, 5.884e-1
4.260e+1, 5.875e-1
4.261e+1, 5.866e-1
4.262e+1, 5.857e-1
4.263e+1, 5.848e-1
4.264e+1, 5.839e-1
4.265e+1, 5.831e-1
4.266e+1, 5.822e-1
4.267e+1, 5.813e-1
4.268e+1, 5.804e-1
4.269e+1, 5.795e-1
4.270e+1, 5.787e-1
4.271e+1, 5.778e-1
4.272e+1, 5.769e-1
4.273e+1, 5.761e-1
4.274e+1, 5.752e-1
4.275e+1, 5.743e-1
4.276e+1, 5.735e-1
4.277e+1, 5.726e-1
4.278e+1, 5.718e-1
4.279e+1, 5.709e-1
4.280e+1, 5.700e-1
4.281e+1, 5.692e-1
4.282e+1, 5.684e-1
4.283e+1, 5.675e-1
4.284e+1, 5.666e-1
4.285e+1, 5.658e-1
4.286e+1, 5.650e-1
4.287e+1, 5.641e-1
4.288e+1, 5.633e-1
4.289e+1, 5.625e-1
4.290e+1, 5.616e-1
4.291e+1, 5.608e-1
4.292e+1, 5.600e-1
4.293e+1, 5.592e-1
4.294e+1, 5.583e-1
4.295e+1, 5.575e-1
4.296e+1, 5.567e-1
4.297e+1, 5.559e-1
4.298e+1, 5.550e-1
4.299e+1, 5.542e-1
4.300e+1, 5.534e-1
4.301e+1, 5.526e-1
4.302e+1, 5.518e-1
4.303e+1, 5.510e-1
4.304e+1, 5.501e-1
4.305e+1, 5.493e-1
4.306e+1, 5.485e-1
4.307e+1, 5.477e-1
4.308e+1, 5.469e-1
4.309e+1, 5.461e-1
4.310e+1, 5.453e-1
4.311e+1, 5.446e-1
4.312e+1, 5.437e-1
4.313e+1, 5.430e-1
4.314e+1, 5.421e-1
4.315e+1, 5.414e-1
4.316e+1, 5.406e-1
4.317e+1, 5.398e-1
4.318e+1, 5.390e-1
4.319e+1, 5.382e-1
4.320e+1, 5.374e-1
4.321e+1, 5.367e-1
4.322e+1, 5.359e-1
4.323e+1, 5.351e-1
4.324e+1, 5.343e-1
4.325e+1, 5.336e-1
4.326e+1, 5.328e-1
4.327e+1, 5.320e-1
4.328e+1, 5.312e-1
4.329e+1, 5.305e-1
4.330e+1, 5.297e-1
4.331e+1, 5.290e-1
4.332e+1, 5.282e-1
4.333e+1, 5.274e-1
4.334e+1, 5.267e-1
4.335e+1, 5.259e-1
4.336e+1, 5.251e-1
4.337e+1, 5.244e-1
4.338e+1, 5.236e-1
4.339e+1, 5.229e-1
4.340e+1, 5.221e-1
4.341e+1, 5.214e-1
4.342e+1, 5.206e-1
4.343e+1, 5.199e-1
4.344e+1, 5.191e-1
4.345e+1, 5.184e-1
4.346e+1, 5.176e-1
4.347e+1, 5.169e-1
4.348e+1, 5.162e-1
4.349e+1, 5.154e-1
4.350e+1, 5.147e-1
4.351e+1, 5.140e-1
4.352e+1, 5.132e-1
4.353e+1, 5.125e-1
4.354e+1, 5.117e-1
4.355e+1, 5.110e-1
4.356e+1, 5.103e-1
4.357e+1, 5.096e-1
4.358e+1, 5.088e-1
4.359e+1, 5.081e-1
4.360e+1, 5.074e-1
4.361e+1, 5.067e-1
4.362e+1, 5.059e-1
4.363e+1, 5.052e-1
4.364e+1, 5.045e-1
4.365e+1, 5.038e-1
4.366e+1, 5.031e-1
4.367e+1, 5.023e-1
4.368e+1, 5.016e-1
4.369e+1, 5.009e-1
4.370e+1, 5.002e-1
4.371e+1, 4.995e-1
4.372e+1, 4.988e-1
4.373e+1, 4.981e-1
4.374e+1, 4.974e-1
4.375e+1, 4.967e-1
4.376e+1, 4.960e-1
4.377e+1, 4.953e-1
4.378e+1, 4.945e-1
4.379e+1, 4.939e-1
4.380e+1, 4.932e-1
4.381e+1, 4.925e-1
4.382e+1, 4.918e-1
4.383e+1, 4.911e-1
4.384e+1, 4.904e-1
4.385e+1, 4.897e-1
4.386e+1, 4.890e-1
4.387e+1, 4.883e-1
4.388e+1, 4.876e-1
4.389e+1, 4.869e-1
4.390e+1, 4.862e-1
4.391e+1, 4.855e-1
4.392e+1, 4.848e-1
4.393e+1, 4.842e-1
4.394e+1, 4.835e-1
4.395e+1, 4.828e-1
4.396e+1, 4.821e-1
4.397e+1, 4.815e-1
4.398e+1, 4.808e-1
4.399e+1, 4.801e-1
4.400e+1, 4.794e-1
4.401e+1, 4.787e-1
4.402e+1, 4.780e-1
4.403e+1, 4.774e-1
4.404e+1, 4.767e-1
4.405e+1, 4.760e-1
4.406e+1, 4.754e-1
4.407e+1, 4.747e-1
4.408e+1, 4.740e-1
4.409e+1, 4.734e-1
4.410e+1, 4.727e-1
4.411e+1, 4.720e-1
4.412e+1, 4.713e-1
4.413e+1, 4.707e-1
4.414e+1, 4.700e-1
4.415e+1, 4.694e-1
4.416e+1, 4.687e-1
4.417e+1, 4.681e-1
4.418e+1, 4.674e-1
4.419e+1, 4.668e-1
4.420e+1, 4.661e-1
4.421e+1, 4.655e-1
4.422e+1, 4.648e-1
4.423e+1, 4.641e-1
4.424e+1, 4.635e-1
4.425e+1, 4.628e-1
4.426e+1, 4.622e-1
4.427e+1, 4.615e-1
4.428e+1, 4.609e-1
4.429e+1, 4.602e-1
4.430e+1, 4.596e-1
4.431e+1, 4.589e-1
4.432e+1, 4.583e-1
4.433e+1, 4.577e-1
4.434e+1, 4.570e-1
4.435e+1, 4.564e-1
4.436e+1, 4.557e-1
4.437e+1, 4.551e-1
4.438e+1, 4.544e-1
4.439e+1, 4.538e-1
4.440e+1, 4.532e-1
4.441e+1, 4.526e-1
4.442e+1, 4.519e-1
4.443e+1, 4.513e-1
4.444e+1, 4.507e-1
4.445e+1, 4.500e-1
4.446e+1, 4.494e-1
4.447e+1, 4.488e-1
4.448e+1, 4.481e-1
4.449e+1, 4.475e-1
4.450e+1, 4.469e-1
4.451e+1, 4.463e-1
4.452e+1, 4.456e-1
4.453e+1, 4.450e-1
4.454e+1, 4.444e-1
4.455e+1, 4.438e-1
4.456e+1, 4.431e-1
4.457e+1, 4.425e-1
4.458e+1, 4.419e-1
4.459e+1, 4.413e-1
4.460e+1, 4.407e-1
4.461e+1, 4.401e-1
4.462e+1, 4.394e-1
4.463e+1, 4.388e-1
4.464e+1, 4.382e-1
4.465e+1, 4.376e-1
4.466e+1, 4.370e-1
4.467e+1, 4.364e-1
4.468e+1, 4.358e-1
4.469e+1, 4.352e-1
4.470e+1, 4.346e-1
4.471e+1, 4.340e-1
4.472e+1, 4.334e-1
4.473e+1, 4.328e-1
4.474e+1, 4.321e-1
4.475e+1, 4.316e-1
4.476e+1, 4.310e-1
4.477e+1, 4.304e-1
4.478e+1, 4.298e-1
4.479e+1, 4.292e-1
4.480e+1, 4.286e-1
4.481e+1, 4.280e-1
4.482e+1, 4.274e-1
4.483e+1, 4.268e-1
4.484e+1, 4.262e-1
4.485e+1, 4.256e-1
4.486e+1, 4.250e-1
4.487e+1, 4.244e-1
4.488e+1, 4.238e-1
4.489e+1, 4.232e-1
4.490e+1, 4.226e-1
4.491e+1, 4.221e-1
4.492e+1, 4.215e-1
4.493e+1, 4.209e-1
4.494e+1, 4.203e-1
4.495e+1, 4.197e-1
4.496e+1, 4.191e-1
4.497e+1, 4.186e-1
4.498e+1, 4.180e-1
4.499e+1, 4.174e-1
4.500e+1, 4.168e-1
4.501e+1, 4.162e-1
4.502e+1, 4.157e-1
4.503e+1, 4.151e-1
4.504e+1, 4.145e-1
4.505e+1, 4.140e-1
4.506e+1, 4.134e-1
4.507e+1, 4.128e-1
4.508e+1, 4.122e-1
4.509e+1, 4.117e-1
4.510e+1, 4.111e-1
4.511e+1, 4.105e-1
4.512e+1, 4.100e-1
4.513e+1, 4.094e-1
4.514e+1, 4.088e-1
4.515e+1, 4.083e-1
4.516e+1, 4.077e-1
4.517e+1, 4.071e-1
4.518e+1, 4.066e-1
4.519e+1, 4.060e-1
4.520e+1, 4.055e-1
4.521e+1, 4.049e-1
4.522e+1, 4.043e-1
4.523e+1, 4.038e-1
4.524e+1, 4.032e-1
4.525e+1, 4.027e-1
4.526e+1, 4.021e-1
4.527e+1, 4.016e-1
4.528e+1, 4.010e-1
4.529e+1, 4.005e-1
4.530e+1, 3.999e-1
4.531e+1, 3.994e-1
4.532e+1, 3.988e-1
4.533e+1, 3.983e-1
4.534e+1, 3.977e-1
4.535e+1, 3.972e-1
4.536e+1, 3.966e-1
4.537e+1, 3.961e-1
4.538e+1, 3.955e-1
4.539e+1, 3.950e-1
4.540e+1, 3.944e-1
4.541e+1, 3.939e-1
4.542e+1, 3.934e-1
4.543e+1, 3.928e-1
4.544e+1, 3.923e-1
4.545e+1, 3.917e-1
4.546e+1, 3.912e-1
4.547e+1, 3.907e-1
4.548e+1, 3.901e-1
4.549e+1, 3.896e-1
4.550e+1, 3.891e-1
4.551e+1, 3.885e-1
4.552e+1, 3.880e-1
4.553e+1, 3.875e-1
4.554e+1, 3.869e-1
4.555e+1, 3.864e-1
4.556e+1, 3.859e-1
4.557e+1, 3.853e-1
4.558e+1, 3.848e-1
4.559e+1, 3.843e-1
4.560e+1, 3.837e-1
4.561e+1, 3.832e-1
4.562e+1, 3.827e-1
4.563e+1, 3.822e-1
4.564e+1, 3.816e-1
4.565e+1, 3.811e-1
4.566e+1, 3.806e-1
4.567e+1, 3.801e-1
4.568e+1, 3.795e-1
4.569e+1, 3.790e-1
4.570e+1, 3.785e-1
4.571e+1, 3.780e-1
4.572e+1, 3.774e-1
4.573e+1, 3.769e-1
4.574e+1, 3.764e-1
4.575e+1, 3.759e-1
4.576e+1, 3.753e-1
4.577e+1, 3.748e-1
4.578e+1, 3.743e-1
4.579e+1, 3.738e-1
4.580e+1, 3.733e-1
4.581e+1, 3.728e-1
4.582e+1, 3.722e-1
4.583e+1, 3.717e-1
4.584e+1, 3.712e-1
4.585e+1, 3.707e-1
4.586e+1, 3.702e-1
4.587e+1, 3.697e-1
4.588e+1, 3.691e-1
4.589e+1, 3.686e-1
4.590e+1, 3.681e-1
4.591e+1, 3.676e-1
4.592e+1, 3.671e-1
4.593e+1, 3.666e-1
4.594e+1, 3.661e-1
4.595e+1, 3.656e-1
4.596e+1, 3.650e-1
4.597e+1, 3.645e-1
4.598e+1, 3.640e-1
4.599e+1, 3.635e-1
4.600e+1, 3.630e-1
4.601e+1, 3.625e-1
4.602e+1, 3.620e-1
4.603e+1, 3.615e-1
4.604e+1, 3.609e-1
4.605e+1, 3.604e-1
4.606e+1, 3.599e-1
4.607e+1, 3.594e-1
4.608e+1, 3.589e-1
4.609e+1, 3.584e-1
4.610e+1, 3.579e-1
4.611e+1, 3.574e-1
4.612e+1, 3.569e-1
4.613e+1, 3.564e-1
4.614e+1, 3.559e-1
4.615e+1, 3.554e-1
4.616e+1, 3.549e-1
4.617e+1, 3.543e-1
4.618e+1, 3.538e-1
4.619e+1, 3.533e-1
4.620e+1, 3.528e-1
4.621e+1, 3.523e-1
4.622e+1, 3.518e-1
4.623e+1, 3.513e-1
4.624e+1, 3.508e-1
4.625e+1, 3.503e-1
4.626e+1, 3.498e-1
4.627e+1, 3.493e-1
4.628e+1, 3.488e-1
4.629e+1, 3.483e-1
4.630e+1, 3.478e-1
4.631e+1, 3.473e-1
4.632e+1, 3.467e-1
4.633e+1, 3.462e-1
4.634e+1, 3.457e-1
4.635e+1, 3.452e-1
4.636e+1, 3.447e-1
4.637e+1, 3.442e-1
4.638e+1, 3.437e-1
4.639e+1, 3.432e-1
4.640e+1, 3.427e-1
4.641e+1, 3.422e-1
4.642e+1, 3.417e-1
4.643e+1, 3.412e-1
4.644e+1, 3.407e-1
4.645e+1, 3.402e-1
4.646e+1, 3.397e-1
4.647e+1, 3.392e-1
4.648e+1, 3.387e-1
4.649e+1, 3.382e-1
4.650e+1, 3.377e-1
4.651e+1, 3.371e-1
4.652e+1, 3.366e-1
4.653e+1, 3.361e-1
4.654e+1, 3.356e-1
4.655e+1, 3.351e-1
4.656e+1, 3.346e-1
4.657e+1, 3.341e-1
4.658e+1, 3.336e-1
4.659e+1, 3.331e-1
4.660e+1, 3.326e-1
4.661e+1, 3.321e-1
4.662e+1, 3.316e-1
4.663e+1, 3.311e-1
4.664e+1, 3.306e-1
4.665e+1, 3.301e-1
4.666e+1, 3.296e-1
4.667e+1, 3.291e-1
4.668e+1, 3.286e-1
4.669e+1, 3.281e-1
4.670e+1, 3.275e-1
4.671e+1, 3.270e-1
4.672e+1, 3.265e-1
4.673e+1, 3.260e-1
4.674e+1, 3.255e-1
4.675e+1, 3.250e-1
4.676e+1, 3.245e-1
4.677e+1, 3.240e-1
4.678e+1, 3.235e-1
4.679e+1, 3.230e-1
4.680e+1, 3.225e-1
4.681e+1, 3.220e-1
4.682e+1, 3.215e-1
4.683e+1, 3.210e-1
4.684e+1, 3.205e-1
4.685e+1, 3.199e-1
4.686e+1, 3.194e-1
4.687e+1, 3.189e-1
4.688e+1, 3.184e-1
4.689e+1, 3.179e-1
4.690e+1, 3.174e-1
4.691e+1, 3.169e-1
4.692e+1, 3.164e-1
4.693e+1, 3.159e-1
4.694e+1, 3.154e-1
4.695e+1, 3.149e-1
4.696e+1, 3.143e-1
4.697e+1, 3.138e-1
4.698e+1, 3.133e-1
4.699e+1, 3.128e-1
4.700e+1, 3.123e-1
4.701e+1, 3.118e-1
4.702e+1, 3.113e-1
4.703e+1, 3.108e-1
4.704e+1, 3.103e-1
4.705e+1, 3.098e-1
4.706e+1, 3.093e-1
4.707e+1, 3.088e-1
4.708e+1, 3.082e-1
4.709e+1, 3.077e-1
4.710e+1, 3.072e-1
4.711e+1, 3.067e-1
4.712e+1, 3.062e-1
4.713e+1, 3.057e-1
4.714e+1, 3.052e-1
4.715e+1, 3.047e-1
4.716e+1, 3.041e-1
4.717e+1, 3.036e-1
4.718e+1, 3.031e-1
4.719e+1, 3.026e-1
4.720e+1, 3.021e-1
4.721e+1, 3.016e-1
4.722e+1, 3.011e-1
4.723e+1, 3.006e-1
4.724e+1, 3.000e-1
4.725e+1, 2.995e-1
4.726e+1, 2.990e-1
4.727e+1, 2.985e-1
4.728e+1, 2.980e-1
4.729e+1, 2.975e-1
4.730e+1, 2.970e-1
4.731e+1, 2.964e-1
4.732e+1, 2.959e-1
4.733e+1, 2.954e-1
4.734e+1, 2.949e-1
4.735e+1, 2.944e-1
4.736e+1, 2.939e-1
4.737e+1, 2.934e-1
4.738e+1, 2.928e-1
4.739e+1, 2.923e-1
4.740e+1, 2.918e-1
4.741e+1, 2.913e-1
4.742e+1, 2.908e-1
4.743e+1, 2.903e-1
4.744e+1, 2.897e-1
4.745e+1, 2.892e-1
4.746e+1, 2.887e-1
4.747e+1, 2.882e-1
4.748e+1, 2.877e-1
4.749e+1, 2.871e-1
4.750e+1, 2.866e-1
4.751e+1, 2.861e-1
4.752e+1, 2.856e-1
4.753e+1, 2.851e-1
4.754e+1, 2.846e-1
4.755e+1, 2.840e-1
4.756e+1, 2.835e-1
4.757e+1, 2.830e-1
4.758e+1, 2.825e-1
4.759e+1, 2.819e-1
4.760e+1, 2.814e-1
4.761e+1, 2.809e-1
4.762e+1, 2.804e-1
4.763e+1, 2.799e-1
4.764e+1, 2.793e-1
4.765e+1, 2.788e-1
4.766e+1, 2.783e-1
4.767e+1, 2.778e-1
4.768e+1, 2.773e-1
4.769e+1, 2.767e-1
4.770e+1, 2.762e-1
4.771e+1, 2.757e-1
4.772e+1, 2.752e-1
4.773e+1, 2.746e-1
4.774e+1, 2.741e-1
4.775e+1, 2.736e-1
4.776e+1, 2.731e-1
4.777e+1, 2.726e-1
4.778e+1, 2.720e-1
4.779e+1, 2.715e-1
4.780e+1, 2.710e-1
4.781e+1, 2.705e-1
4.782e+1, 2.699e-1
4.783e+1, 2.694e-1
4.784e+1, 2.689e-1
4.785e+1, 2.684e-1
4.786e+1, 2.678e-1
4.787e+1, 2.673e-1
4.788e+1, 2.668e-1
4.789e+1, 2.662e-1
4.790e+1, 2.657e-1
4.791e+1, 2.652e-1
4.792e+1, 2.647e-1
4.793e+1, 2.641e-1
4.794e+1, 2.636e-1
4.795e+1, 2.631e-1
4.796e+1, 2.626e-1
4.797e+1, 2.620e-1
4.798e+1, 2.615e-1
4.799e+1, 2.610e-1
4.800e+1, 2.604e-1
4.801e+1, 2.599e-1
4.802e+1, 2.594e-1
4.803e+1, 2.588e-1
4.804e+1, 2.583e-1
4.805e+1, 2.578e-1
4.806e+1, 2.573e-1
4.807e+1, 2.567e-1
4.808e+1, 2.562e-1
4.809e+1, 2.557e-1
4.810e+1, 2.551e-1
4.811e+1, 2.546e-1
4.812e+1, 2.541e-1
4.813e+1, 2.535e-1
4.814e+1, 2.530e-1
4.815e+1, 2.525e-1
4.816e+1, 2.519e-1
4.817e+1, 2.514e-1
4.818e+1, 2.509e-1
4.819e+1, 2.503e-1
4.820e+1, 2.498e-1
4.821e+1, 2.493e-1
4.822e+1, 2.487e-1
4.823e+1, 2.482e-1
4.824e+1, 2.477e-1
4.825e+1, 2.471e-1
4.826e+1, 2.466e-1
4.827e+1, 2.461e-1
4.828e+1, 2.455e-1
4.829e+1, 2.450e-1
4.830e+1, 2.445e-1
4.831e+1, 2.439e-1
4.832e+1, 2.434e-1
4.833e+1, 2.428e-1
4.834e+1, 2.423e-1
4.835e+1, 2.418e-1
4.836e+1, 2.412e-1
4.837e+1, 2.407e-1
4.838e+1, 2.402e-1
4.839e+1, 2.396e-1
4.840e+1, 2.391e-1
4.841e+1, 2.385e-1
4.842e+1, 2.380e-1
4.843e+1, 2.375e-1
4.844e+1, 2.369e-1
4.845e+1, 2.364e-1
4.846e+1, 2.358e-1
4.847e+1, 2.353e-1
4.848e+1, 2.348e-1
4.849e+1, 2.342e-1
4.850e+1, 2.337e-1
4.851e+1, 2.331e-1
4.852e+1, 2.326e-1
4.853e+1, 2.321e-1
4.854e+1, 2.315e-1
4.855e+1, 2.310e-1
4.856e+1, 2.304e-1
4.857e+1, 2.299e-1
4.858e+1, 2.293e-1
4.859e+1, 2.288e-1
4.860e+1, 2.283e-1
4.861e+1, 2.277e-1
4.862e+1, 2.272e-1
4.863e+1, 2.266e-1
4.864e+1, 2.261e-1
4.865e+1, 2.255e-1
4.866e+1, 2.250e-1
4.867e+1, 2.245e-1
4.868e+1, 2.239e-1
4.869e+1, 2.234e-1
4.870e+1, 2.228e-1
4.871e+1, 2.223e-1
4.872e+1, 2.217e-1
4.873e+1, 2.212e-1
4.874e+1, 2.206e-1
4.875e+1, 2.201e-1
4.876e+1, 2.195e-1
4.877e+1, 2.190e-1
4.878e+1, 2.184e-1
4.879e+1, 2.179e-1
4.880e+1, 2.173e-1
4.881e+1, 2.168e-1
4.882e+1, 2.163e-1
4.883e+1, 2.157e-1
4.884e+1, 2.152e-1
4.885e+1, 2.146e-1
4.886e+1, 2.141e-1
4.887e+1, 2.135e-1
4.888e+1, 2.130e-1
4.889e+1, 2.124e-1
4.890e+1, 2.119e-1
4.891e+1, 2.113e-1
4.892e+1, 2.107e-1
4.893e+1, 2.102e-1
4.894e+1, 2.097e-1
4.895e+1, 2.091e-1
4.896e+1, 2.085e-1
4.897e+1, 2.080e-1
4.898e+1, 2.074e-1
4.899e+1, 2.069e-1
4.900e+1, 2.063e-1
4.901e+1, 2.058e-1
4.902e+1, 2.052e-1
4.903e+1, 2.047e-1
4.904e+1, 2.041e-1
4.905e+1, 2.036e-1
4.906e+1, 2.030e-1
4.907e+1, 2.025e-1
4.908e+1, 2.019e-1
4.909e+1, 2.013e-1
4.910e+1, 2.008e-1
4.911e+1, 2.002e-1
4.912e+1, 1.997e-1
4.913e+1, 1.991e-1
4.914e+1, 1.986e-1
4.915e+1, 1.980e-1
4.916e+1, 1.975e-1
4.917e+1, 1.969e-1
4.918e+1, 1.963e-1
4.919e+1, 1.958e-1
4.920e+1, 1.952e-1
4.921e+1, 1.947e-1
4.922e+1, 1.941e-1
4.923e+1, 1.936e-1
4.924e+1, 1.930e-1
4.925e+1, 1.924e-1
4.926e+1, 1.919e-1
4.927e+1, 1.913e-1
4.928e+1, 1.908e-1
4.929e+1, 1.902e-1
4.930e+1, 1.896e-1
4.931e+1, 1.891e-1
4.932e+1, 1.885e-1
4.933e+1, 1.879e-1
4.934e+1, 1.874e-1
4.935e+1, 1.868e-1
4.936e+1, 1.863e-1
4.937e+1, 1.857e-1
4.938e+1, 1.851e-1
4.939e+1, 1.846e-1
4.940e+1, 1.840e-1
4.941e+1, 1.835e-1
4.942e+1, 1.829e-1
4.943e+1, 1.823e-1
4.944e+1, 1.818e-1
4.945e+1, 1.812e-1
4.946e+1, 1.806e-1
4.947e+1, 1.801e-1
4.948e+1, 1.795e-1
4.949e+1, 1.790e-1
4.950e+1, 1.784e-1
4.951e+1, 1.778e-1
4.952e+1, 1.773e-1
4.953e+1, 1.767e-1
4.954e+1, 1.761e-1
4.955e+1, 1.756e-1
4.956e+1, 1.750e-1
4.957e+1, 1.744e-1
4.958e+1, 1.739e-1
4.959e+1, 1.733e-1
4.960e+1, 1.727e-1
4.961e+1, 1.721e-1
4.962e+1, 1.716e-1
4.963e+1, 1.710e-1
4.964e+1, 1.705e-1
4.965e+1, 1.699e-1
4.966e+1, 1.693e-1
4.967e+1, 1.688e-1
4.968e+1, 1.682e-1
4.969e+1, 1.676e-1
4.970e+1, 1.671e-1
4.971e+1, 1.665e-1
4.972e+1, 1.659e-1
4.973e+1, 1.653e-1
4.974e+1, 1.648e-1
4.975e+1, 1.642e-1
4.976e+1, 1.636e-1
4.977e+1, 1.631e-1
4.978e+1, 1.625e-1
4.979e+1, 1.619e-1
4.980e+1, 1.613e-1
4.981e+1, 1.608e-1
4.982e+1, 1.602e-1
4.983e+1, 1.596e-1
4.984e+1, 1.591e-1
4.985e+1, 1.585e-1
4.986e+1, 1.579e-1
4.987e+1, 1.573e-1
4.988e+1, 1.568e-1
4.989e+1, 1.562e-1
4.990e+1, 1.556e-1
4.991e+1, 1.550e-1
4.992e+1, 1.545e-1
4.993e+1, 1.539e-1
4.994e+1, 1.533e-1
4.995e+1, 1.528e-1
4.996e+1, 1.522e-1
4.997e+1, 1.516e-1
4.998e+1, 1.510e-1
4.999e+1, 1.505e-1
5.000e+1, 1.499e-1
5.001e+1, 1.493e-1
5.002e+1, 1.487e-1
5.003e+1, 1.481e-1
5.004e+1, 1.476e-1
5.005e+1, 1.470e-1
5.006e+1, 1.464e-1
5.007e+1, 1.458e-1
5.008e+1, 1.453e-1
5.009e+1, 1.447e-1
5.010e+1, 1.441e-1
5.011e+1, 1.435e-1
5.012e+1, 1.430e-1
5.013e+1, 1.424e-1
5.014e+1, 1.418e-1
5.015e+1, 1.412e-1
5.016e+1, 1.406e-1
5.017e+1, 1.401e-1
5.018e+1, 1.395e-1
5.019e+1, 1.389e-1
5.020e+1, 1.383e-1
5.021e+1, 1.377e-1
5.022e+1, 1.372e-1
5.023e+1, 1.366e-1
5.024e+1, 1.360e-1
5.025e+1, 1.354e-1
5.026e+1, 1.349e-1
5.027e+1, 1.343e-1
5.028e+1, 1.337e-1
5.029e+1, 1.331e-1
5.030e+1, 1.325e-1
5.031e+1, 1.319e-1
5.032e+1, 1.314e-1
5.033e+1, 1.308e-1
5.034e+1, 1.302e-1
5.035e+1, 1.296e-1
5.036e+1, 1.290e-1
5.037e+1, 1.285e-1
5.038e+1, 1.279e-1
5.039e+1, 1.273e-1
5.040e+1, 1.267e-1
5.041e+1, 1.261e-1
5.042e+1, 1.255e-1
5.043e+1, 1.250e-1
5.044e+1, 1.244e-1
5.045e+1, 1.238e-1
5.046e+1, 1.232e-1
5.047e+1, 1.226e-1
5.048e+1, 1.220e-1
5.049e+1, 1.215e-1
5.050e+1, 1.209e-1
5.051e+1, 1.203e-1
5.052e+1, 1.197e-1
5.053e+1, 1.191e-1
5.054e+1, 1.186e-1
5.055e+1, 1.180e-1
5.056e+1, 1.174e-1
5.057e+1, 1.168e-1
5.058e+1, 1.162e-1
5.059e+1, 1.156e-1
5.060e+1, 1.150e-1
5.061e+1, 1.145e-1
5.062e+1, 1.139e-1
5.063e+1, 1.133e-1
5.064e+1, 1.127e-1
5.065e+1, 1.121e-1
5.066e+1, 1.115e-1
5.067e+1, 1.109e-1
5.068e+1, 1.104e-1
5.069e+1, 1.098e-1
5.070e+1, 1.092e-1
5.071e+1, 1.086e-1
5.072e+1, 1.080e-1
5.073e+1, 1.074e-1
5.074e+1, 1.068e-1
5.075e+1, 1.063e-1
5.076e+1, 1.057e-1
5.077e+1, 1.051e-1
5.078e+1, 1.045e-1
5.079e+1, 1.039e-1
5.080e+1, 1.033e-1
5.081e+1, 1.027e-1
5.082e+1, 1.022e-1
5.083e+1, 1.016e-1
5.084e+1, 1.010e-1
5.085e+1, 1.004e-1
5.086e+1, 9.981e-2
5.087e+1, 9.922e-2
5.088e+1, 9.864e-2
5.089e+1, 9.805e-2
5.090e+1, 9.746e-2
5.091e+1, 9.687e-2
5.092e+1, 9.629e-2
5.093e+1, 9.570e-2
5.094e+1, 9.511e-2
5.095e+1, 9.452e-2
5.096e+1, 9.392e-2
5.097e+1, 9.334e-2
5.098e+1, 9.275e-2
5.099e+1, 9.217e-2
5.100e+1, 9.158e-2
5.101e+1, 9.099e-2
5.102e+1, 9.041e-2
5.103e+1, 8.983e-2
5.104e+1, 8.924e-2
5.105e+1, 8.865e-2
5.106e+1, 8.807e-2
5.107e+1, 8.748e-2
5.108e+1, 8.689e-2
5.109e+1, 8.630e-2
5.110e+1, 8.570e-2
5.111e+1, 8.512e-2
5.112e+1, 8.453e-2
5.113e+1, 8.395e-2
5.114e+1, 8.336e-2
5.115e+1, 8.276e-2
5.116e+1, 8.217e-2
5.117e+1, 8.159e-2
5.118e+1, 8.100e-2
5.119e+1, 8.041e-2
5.120e+1, 7.982e-2
5.121e+1, 7.923e-2
5.122e+1, 7.864e-2
5.123e+1, 7.805e-2
5.124e+1, 7.746e-2
5.125e+1, 7.688e-2
5.126e+1, 7.629e-2
5.127e+1, 7.570e-2
5.128e+1, 7.511e-2
5.129e+1, 7.454e-2
5.130e+1, 7.394e-2
5.131e+1, 7.335e-2
5.132e+1, 7.277e-2
5.133e+1, 7.218e-2
5.134e+1, 7.159e-2
5.135e+1, 7.100e-2
5.136e+1, 7.040e-2
5.137e+1, 6.982e-2
5.138e+1, 6.923e-2
5.139e+1, 6.864e-2
5.140e+1, 6.806e-2
5.141e+1, 6.747e-2
5.142e+1, 6.688e-2
5.143e+1, 6.629e-2
5.144e+1, 6.570e-2
5.145e+1, 6.511e-2
5.146e+1, 6.452e-2
5.147e+1, 6.394e-2
5.148e+1, 6.335e-2
5.149e+1, 6.275e-2
5.150e+1, 6.216e-2
5.151e+1, 6.158e-2
5.152e+1, 6.098e-2
5.153e+1, 6.040e-2
5.154e+1, 5.981e-2
5.155e+1, 5.922e-2
5.156e+1, 5.865e-2
5.157e+1, 5.806e-2
5.158e+1, 5.747e-2
5.159e+1, 5.689e-2
5.160e+1, 5.630e-2
5.161e+1, 5.571e-2
5.162e+1, 5.512e-2
5.163e+1, 5.453e-2
5.164e+1, 5.394e-2
5.165e+1, 5.335e-2
5.166e+1, 5.277e-2
5.167e+1, 5.218e-2
5.168e+1, 5.160e-2
5.169e+1, 5.100e-2
5.170e+1, 5.041e-2
5.171e+1, 4.982e-2
5.172e+1, 4.924e-2
5.173e+1, 4.865e-2
5.174e+1, 4.806e-2
5.175e+1, 4.748e-2
5.176e+1, 4.689e-2
5.177e+1, 4.629e-2
5.178e+1, 4.571e-2
5.179e+1, 4.513e-2
5.180e+1, 4.454e-2
5.181e+1, 4.396e-2
5.182e+1, 4.337e-2
5.183e+1, 4.280e-2
5.184e+1, 4.220e-2
5.185e+1, 4.162e-2
5.186e+1, 4.104e-2
5.187e+1, 4.045e-2
5.188e+1, 3.987e-2
5.189e+1, 3.927e-2
5.190e+1, 3.869e-2
5.191e+1, 3.810e-2
5.192e+1, 3.752e-2
5.193e+1, 3.693e-2
5.194e+1, 3.635e-2
5.195e+1, 3.576e-2
5.196e+1, 3.517e-2
5.197e+1, 3.459e-2
5.198e+1, 3.400e-2
5.199e+1, 3.342e-2
5.200e+1, 3.284e-2
5.201e+1, 3.225e-2
5.202e+1, 3.166e-2
5.203e+1, 3.108e-2
5.204e+1, 3.049e-2
5.205e+1, 2.991e-2
5.206e+1, 2.933e-2
5.207e+1, 2.874e-2
5.208e+1, 2.816e-2
5.209e+1, 2.758e-2
5.210e+1, 2.700e-2
5.211e+1, 2.642e-2
5.212e+1, 2.584e-2
5.213e+1, 2.526e-2
5.214e+1, 2.468e-2
5.215e+1, 2.409e-2
5.216e+1, 2.350e-2
5.217e+1, 2.292e-2
5.218e+1, 2.233e-2
5.219e+1, 2.175e-2
5.220e+1, 2.117e-2
5.221e+1, 2.059e-2
5.222e+1, 2.001e-2
5.223e+1, 1.942e-2
5.224e+1, 1.884e-2
5.225e+1, 1.825e-2
5.226e+1, 1.768e-2
5.227e+1, 1.711e-2
5.228e+1, 1.651e-2
5.229e+1, 1.593e-2
5.230e+1, 1.534e-2
5.231e+1, 1.476e-2
5.232e+1, 1.418e-2
5.233e+1, 1.360e-2
5.234e+1, 1.302e-2
5.235e+1, 1.244e-2
5.236e+1, 1.187e-2
5.237e+1, 1.129e-2
5.238e+1, 1.071e-2
5.239e+1, 1.013e-2
5.240e+1, 9.551e-3
5.241e+1, 8.969e-3
5.242e+1, 8.385e-3
5.243e+1, 7.801e-3
5.244e+1, 7.219e-3
5.245e+1, 6.641e-3
5.246e+1, 6.057e-3
5.247e+1, 5.483e-3
5.248e+1, 4.903e-3
5.249e+1, 4.328e-3
5.250e+1, 3.743e-3
5.251e+1, 3.162e-3
5.252e+1, 2.586e-3
5.253e+1, 2.006e-3
5.254e+1, 1.429e-3
5.255e+1, 8.489e-4
5.256e+1, 2.715e-4
5.257e+1, -3.124e-4
5.258e+1, -8.906e-4
5.259e+1, -1.468e-3
5.260e+1, -2.050e-3
5.261e+1, -2.623e-3
5.262e+1, -3.203e-3
5.263e+1, -3.782e-3
5.264e+1, -4.349e-3
5.265e+1, -4.931e-3
5.266e+1, -5.507e-3
5.267e+1, -6.083e-3
5.268e+1, -6.656e-3
5.269e+1, -7.235e-3
5.270e+1, -7.816e-3
5.271e+1, -8.392e-3
5.272e+1, -8.974e-3
5.273e+1, -9.553e-3
5.274e+1, -1.012e-2
5.275e+1, -1.069e-2
5.276e+1, -1.128e-2
5.277e+1, -1.185e-2
5.278e+1, -1.244e-2
5.279e+1, -1.301e-2
5.280e+1, -1.359e-2
5.281e+1, -1.416e-2
5.282e+1, -1.473e-2
5.283e+1, -1.531e-2
5.284e+1, -1.589e-2
5.285e+1, -1.647e-2
5.286e+1, -1.704e-2
5.287e+1, -1.762e-2
5.288e+1, -1.819e-2
5.289e+1, -1.877e-2
5.290e+1, -1.935e-2
5.291e+1, -1.991e-2
5.292e+1, -2.049e-2
5.293e+1, -2.106e-2
5.294e+1, -2.164e-2
5.295e+1, -2.221e-2
5.296e+1, -2.279e-2
5.297e+1, -2.337e-2
5.298e+1, -2.395e-2
5.299e+1, -2.453e-2
5.300e+1, -2.510e-2
5.301e+1, -2.567e-2
5.302e+1, -2.624e-2
5.303e+1, -2.682e-2
5.304e+1, -2.740e-2
5.305e+1, -2.797e-2
5.306e+1, -2.855e-2
5.307e+1, -2.913e-2
5.308e+1, -2.970e-2
5.309e+1, -3.027e-2
5.310e+1, -3.085e-2
5.311e+1, -3.143e-2
5.312e+1, -3.200e-2
5.313e+1, -3.258e-2
5.314e+1, -3.315e-2
5.315e+1, -3.372e-2
5.316e+1, -3.430e-2
5.317e+1, -3.487e-2
5.318e+1, -3.544e-2
5.319e+1, -3.601e-2
5.320e+1, -3.659e-2
5.321e+1, -3.716e-2
5.322e+1, -3.773e-2
5.323e+1, -3.830e-2
5.324e+1, -3.888e-2
5.325e+1, -3.947e-2
5.326e+1, -4.004e-2
5.327e+1, -4.062e-2
5.328e+1, -4.119e-2
5.329e+1, -4.176e-2
5.330e+1, -4.234e-2
5.331e+1, -4.292e-2
5.332e+1, -4.350e-2
5.333e+1, -4.407e-2
5.334e+1, -4.465e-2
5.335e+1, -4.522e-2
5.336e+1, -4.579e-2
5.337e+1, -4.637e-2
5.338e+1, -4.695e-2
5.339e+1, -4.753e-2
5.340e+1, -4.810e-2
5.341e+1, -4.869e-2
5.342e+1, -4.926e-2
5.343e+1, -4.983e-2
5.344e+1, -5.041e-2
5.345e+1, -5.099e-2
5.346e+1, -5.155e-2
5.347e+1, -5.213e-2
5.348e+1, -5.271e-2
5.349e+1, -5.328e-2
5.350e+1, -5.386e-2
5.351e+1, -5.444e-2
5.352e+1, -5.502e-2
5.353e+1, -5.560e-2
5.354e+1, -5.618e-2
5.355e+1, -5.676e-2
5.356e+1, -5.733e-2
5.357e+1, -5.790e-2
5.358e+1, -5.848e-2
5.359e+1, -5.907e-2
5.360e+1, -5.965e-2
5.361e+1, -6.023e-2
5.362e+1, -6.081e-2
5.363e+1, -6.138e-2
5.364e+1, -6.196e-2
5.365e+1, -6.254e-2
5.366e+1, -6.312e-2
5.367e+1, -6.371e-2
5.368e+1, -6.429e-2
5.369e+1, -6.487e-2
5.370e+1, -6.544e-2
5.371e+1, -6.603e-2
5.372e+1, -6.661e-2
5.373e+1, -6.717e-2
5.374e+1, -6.775e-2
5.375e+1, -6.834e-2
5.376e+1, -6.892e-2
5.377e+1, -6.949e-2
5.378e+1, -7.008e-2
5.379e+1, -7.067e-2
5.380e+1, -7.125e-2
5.381e+1, -7.184e-2
5.382e+1, -7.242e-2
5.383e+1, -7.300e-2
5.384e+1, -7.358e-2
5.385e+1, -7.417e-2
5.386e+1, -7.475e-2
5.387e+1, -7.533e-2
5.388e+1, -7.592e-2
5.389e+1, -7.650e-2
5.390e+1, -7.708e-2
5.391e+1, -7.767e-2
5.392e+1, -7.825e-2
5.393e+1, -7.884e-2
5.394e+1, -7.943e-2
5.395e+1, -8.001e-2
5.396e+1, -8.060e-2
5.397e+1, -8.118e-2
5.398e+1, -8.177e-2
5.399e+1, -8.235e-2
5.400e+1, -8.293e-2
5.401e+1, -8.352e-2
5.402e+1, -8.410e-2
5.403e+1, -8.469e-2
5.404e+1, -8.527e-2
5.405e+1, -8.586e-2
5.406e+1, -8.645e-2
5.407e+1, -8.703e-2
5.408e+1, -8.763e-2
5.409e+1, -8.821e-2
5.410e+1, -8.880e-2
5.411e+1, -8.938e-2
5.412e+1, -8.997e-2
5.413e+1, -9.056e-2
5.414e+1, -9.116e-2
5.415e+1, -9.174e-2
5.416e+1, -9.233e-2
5.417e+1, -9.291e-2
5.418e+1, -9.350e-2
5.419e+1, -9.409e-2
5.420e+1, -9.469e-2
5.421e+1, -9.528e-2
5.422e+1, -9.587e-2
5.423e+1, -9.646e-2
5.424e+1, -9.704e-2
5.425e+1, -9.764e-2
5.426e+1, -9.822e-2
5.427e+1, -9.881e-2
5.428e+1, -9.939e-2
5.429e+1, -9.998e-2
