Mar. 29, 2018   10:26:08
Chronopotentiometry
File: c:\users\lingd\google drive\Data Source:  Experiment
Instrument Model:  CHI660E
Header: 
Note: 

Cathodic Current (A) = 0.1672
Anodic Current (A) = 0.1672
Init P/N = N
Data Storage Interval (s) = 0.001
High E Limit (V) = 0
Low E Limit (V) = -1
Cathodic Time (s) = 10
Anodic Time (s) = 10
Current Switching Polarity = Potential
Segment = 5

Time/sec, Potential/V

1.000e-3, -8.255e-1
2.000e-3, -8.283e-1
3.000e-3, -8.278e-1
4.000e-3, -8.309e-1
5.000e-3, -8.355e-1
6.000e-3, -8.402e-1
7.000e-3, -8.448e-1
8.000e-3, -8.493e-1
9.000e-3, -8.536e-1
1.000e-2, -8.578e-1
1.100e-2, -8.617e-1
1.200e-2, -8.655e-1
1.300e-2, -8.691e-1
1.400e-2, -8.727e-1
1.500e-2, -8.761e-1
1.600e-2, -8.794e-1
1.700e-2, -8.826e-1
1.800e-2, -8.857e-1
1.900e-2, -8.888e-1
2.000e-2, -8.918e-1
2.100e-2, -8.947e-1
2.200e-2, -8.975e-1
2.300e-2, -9.003e-1
2.400e-2, -9.030e-1
2.500e-2, -9.056e-1
2.600e-2, -9.082e-1
2.700e-2, -9.107e-1
2.800e-2, -9.132e-1
2.900e-2, -9.157e-1
3.000e-2, -9.181e-1
3.100e-2, -9.204e-1
3.200e-2, -9.227e-1
3.300e-2, -9.250e-1
3.400e-2, -9.272e-1
3.500e-2, -9.294e-1
3.600e-2, -9.316e-1
3.700e-2, -9.337e-1
3.800e-2, -9.358e-1
3.900e-2, -9.379e-1
4.000e-2, -9.400e-1
4.100e-2, -9.420e-1
4.200e-2, -9.440e-1
4.300e-2, -9.459e-1
4.400e-2, -9.478e-1
4.500e-2, -9.497e-1
4.600e-2, -9.516e-1
4.700e-2, -9.535e-1
4.800e-2, -9.553e-1
4.900e-2, -9.571e-1
5.000e-2, -9.590e-1
5.100e-2, -9.607e-1
5.200e-2, -9.625e-1
5.300e-2, -9.642e-1
5.400e-2, -9.659e-1
5.500e-2, -9.676e-1
5.600e-2, -9.693e-1
5.700e-2, -9.709e-1
5.800e-2, -9.726e-1
5.900e-2, -9.742e-1
6.000e-2, -9.759e-1
6.100e-2, -9.774e-1
6.200e-2, -9.790e-1
6.300e-2, -9.806e-1
6.400e-2, -9.821e-1
6.500e-2, -9.837e-1
6.600e-2, -9.852e-1
6.700e-2, -9.867e-1
6.800e-2, -9.882e-1
6.900e-2, -9.897e-1
7.000e-2, -9.911e-1
7.100e-2, -9.926e-1
7.200e-2, -9.941e-1
7.300e-2, -9.955e-1
7.400e-2, -9.969e-1
7.500e-2, -9.983e-1
7.600e-2, -9.997e-1
7.700e-2, -6.072e-1
7.800e-2, -5.935e-1
7.900e-2, -5.746e-1
8.000e-2, -5.633e-1
8.100e-2, -5.541e-1
8.200e-2, -5.467e-1
8.300e-2, -5.403e-1
8.400e-2, -5.336e-1
8.500e-2, -5.268e-1
8.600e-2, -5.202e-1
8.700e-2, -5.139e-1
8.800e-2, -5.079e-1
8.900e-2, -5.018e-1
9.000e-2, -4.961e-1
9.100e-2, -4.905e-1
9.200e-2, -4.852e-1
9.300e-2, -4.802e-1
9.400e-2, -4.754e-1
9.500e-2, -4.708e-1
9.600e-2, -4.663e-1
9.700e-2, -4.620e-1
9.800e-2, -4.578e-1
9.900e-2, -4.538e-1
1.000e-1, -4.500e-1
1.010e-1, -4.461e-1
1.020e-1, -4.425e-1
1.030e-1, -4.389e-1
1.040e-1, -4.355e-1
1.050e-1, -4.322e-1
1.060e-1, -4.289e-1
1.070e-1, -4.257e-1
1.080e-1, -4.226e-1
1.090e-1, -4.196e-1
1.100e-1, -4.166e-1
1.110e-1, -4.137e-1
1.120e-1, -4.109e-1
1.130e-1, -4.081e-1
1.140e-1, -4.054e-1
1.150e-1, -4.027e-1
1.160e-1, -4.002e-1
1.170e-1, -3.976e-1
1.180e-1, -3.952e-1
1.190e-1, -3.928e-1
1.200e-1, -3.903e-1
1.210e-1, -3.880e-1
1.220e-1, -3.856e-1
1.230e-1, -3.834e-1
1.240e-1, -3.812e-1
1.250e-1, -3.789e-1
1.260e-1, -3.768e-1
1.270e-1, -3.747e-1
1.280e-1, -3.726e-1
1.290e-1, -3.705e-1
1.300e-1, -3.685e-1
1.310e-1, -3.665e-1
1.320e-1, -3.645e-1
1.330e-1, -3.625e-1
1.340e-1, -3.606e-1
1.350e-1, -3.587e-1
1.360e-1, -3.569e-1
1.370e-1, -3.550e-1
1.380e-1, -3.532e-1
1.390e-1, -3.514e-1
1.400e-1, -3.496e-1
1.410e-1, -3.478e-1
1.420e-1, -3.460e-1
1.430e-1, -3.443e-1
1.440e-1, -3.426e-1
1.450e-1, -3.410e-1
1.460e-1, -3.393e-1
1.470e-1, -3.376e-1
1.480e-1, -3.360e-1
1.490e-1, -3.343e-1
1.500e-1, -3.328e-1
1.510e-1, -3.312e-1
1.520e-1, -3.296e-1
1.530e-1, -3.281e-1
1.540e-1, -3.266e-1
1.550e-1, -3.251e-1
1.560e-1, -3.237e-1
1.570e-1, -3.222e-1
1.580e-1, -3.208e-1
1.590e-1, -3.195e-1
1.600e-1, -3.182e-1
1.610e-1, -3.170e-1
1.620e-1, -3.158e-1
1.630e-1, -3.146e-1
1.640e-1, -3.134e-1
1.650e-1, -3.123e-1
1.660e-1, -3.111e-1
1.670e-1, -3.099e-1
1.680e-1, -3.086e-1
1.690e-1, -3.074e-1
1.700e-1, -3.061e-1
1.710e-1, -3.049e-1
1.720e-1, -3.037e-1
1.730e-1, -3.024e-1
1.740e-1, -3.011e-1
1.750e-1, -2.998e-1
1.760e-1, -2.984e-1
1.770e-1, -2.971e-1
1.780e-1, -2.956e-1
1.790e-1, -2.942e-1
1.800e-1, -2.926e-1
1.810e-1, -2.910e-1
1.820e-1, -2.893e-1
1.830e-1, -2.877e-1
1.840e-1, -2.862e-1
1.850e-1, -2.848e-1
1.860e-1, -2.835e-1
1.870e-1, -2.823e-1
1.880e-1, -2.815e-1
1.890e-1, -2.809e-1
1.900e-1, -2.801e-1
1.910e-1, -2.793e-1
1.920e-1, -2.784e-1
1.930e-1, -2.776e-1
1.940e-1, -2.769e-1
1.950e-1, -2.763e-1
1.960e-1, -2.758e-1
1.970e-1, -2.752e-1
1.980e-1, -2.746e-1
1.990e-1, -2.740e-1
2.000e-1, -2.732e-1
2.010e-1, -2.725e-1
2.020e-1, -2.716e-1
2.030e-1, -2.708e-1
2.040e-1, -2.699e-1
2.050e-1, -2.690e-1
2.060e-1, -2.682e-1
2.070e-1, -2.673e-1
2.080e-1, -2.665e-1
2.090e-1, -2.656e-1
2.100e-1, -2.647e-1
2.110e-1, -2.638e-1
2.120e-1, -2.630e-1
2.130e-1, -2.621e-1
2.140e-1, -2.612e-1
2.150e-1, -2.604e-1
2.160e-1, -2.595e-1
2.170e-1, -2.587e-1
2.180e-1, -2.578e-1
2.190e-1, -2.570e-1
2.200e-1, -2.562e-1
2.210e-1, -2.553e-1
2.220e-1, -2.545e-1
2.230e-1, -2.536e-1
2.240e-1, -2.528e-1
2.250e-1, -2.520e-1
2.260e-1, -2.512e-1
2.270e-1, -2.504e-1
2.280e-1, -2.495e-1
2.290e-1, -2.487e-1
2.300e-1, -2.479e-1
2.310e-1, -2.471e-1
2.320e-1, -2.463e-1
2.330e-1, -2.455e-1
2.340e-1, -2.447e-1
2.350e-1, -2.439e-1
2.360e-1, -2.431e-1
2.370e-1, -2.423e-1
2.380e-1, -2.415e-1
2.390e-1, -2.408e-1
2.400e-1, -2.400e-1
2.410e-1, -2.393e-1
2.420e-1, -2.385e-1
2.430e-1, -2.377e-1
2.440e-1, -2.370e-1
2.450e-1, -2.362e-1
2.460e-1, -2.355e-1
2.470e-1, -2.347e-1
2.480e-1, -2.340e-1
2.490e-1, -2.333e-1
2.500e-1, -2.325e-1
2.510e-1, -2.318e-1
2.520e-1, -2.310e-1
2.530e-1, -2.303e-1
2.540e-1, -2.296e-1
2.550e-1, -2.288e-1
2.560e-1, -2.281e-1
2.570e-1, -2.274e-1
2.580e-1, -2.267e-1
2.590e-1, -2.260e-1
2.600e-1, -2.253e-1
2.610e-1, -2.245e-1
2.620e-1, -2.238e-1
2.630e-1, -2.231e-1
2.640e-1, -2.224e-1
2.650e-1, -2.217e-1
2.660e-1, -2.210e-1
2.670e-1, -2.203e-1
2.680e-1, -2.196e-1
2.690e-1, -2.189e-1
2.700e-1, -2.183e-1
2.710e-1, -2.176e-1
2.720e-1, -2.169e-1
2.730e-1, -2.163e-1
2.740e-1, -2.155e-1
2.750e-1, -2.149e-1
2.760e-1, -2.142e-1
2.770e-1, -2.135e-1
2.780e-1, -2.129e-1
2.790e-1, -2.122e-1
2.800e-1, -2.116e-1
2.810e-1, -2.109e-1
2.820e-1, -2.102e-1
2.830e-1, -2.096e-1
2.840e-1, -2.089e-1
2.850e-1, -2.083e-1
2.860e-1, -2.076e-1
2.870e-1, -2.069e-1
2.880e-1, -2.063e-1
2.890e-1, -2.057e-1
2.900e-1, -2.051e-1
2.910e-1, -2.044e-1
2.920e-1, -2.038e-1
2.930e-1, -2.031e-1
2.940e-1, -2.025e-1
2.950e-1, -2.019e-1
2.960e-1, -2.012e-1
2.970e-1, -2.007e-1
2.980e-1, -2.000e-1
2.990e-1, -1.994e-1
3.000e-1, -1.987e-1
3.010e-1, -1.981e-1
3.020e-1, -1.975e-1
3.030e-1, -1.969e-1
3.040e-1, -1.963e-1
3.050e-1, -1.957e-1
3.060e-1, -1.950e-1
3.070e-1, -1.945e-1
3.080e-1, -1.938e-1
3.090e-1, -1.932e-1
3.100e-1, -1.926e-1
3.110e-1, -1.920e-1
3.120e-1, -1.914e-1
3.130e-1, -1.908e-1
3.140e-1, -1.902e-1
3.150e-1, -1.896e-1
3.160e-1, -1.890e-1
3.170e-1, -1.884e-1
3.180e-1, -1.878e-1
3.190e-1, -1.872e-1
3.200e-1, -1.866e-1
3.210e-1, -1.860e-1
3.220e-1, -1.854e-1
3.230e-1, -1.849e-1
3.240e-1, -1.842e-1
3.250e-1, -1.837e-1
3.260e-1, -1.831e-1
3.270e-1, -1.825e-1
3.280e-1, -1.819e-1
3.290e-1, -1.813e-1
3.300e-1, -1.808e-1
3.310e-1, -1.802e-1
3.320e-1, -1.796e-1
3.330e-1, -1.791e-1
3.340e-1, -1.785e-1
3.350e-1, -1.779e-1
3.360e-1, -1.774e-1
3.370e-1, -1.768e-1
3.380e-1, -1.762e-1
3.390e-1, -1.757e-1
3.400e-1, -1.751e-1
3.410e-1, -1.745e-1
3.420e-1, -1.739e-1
3.430e-1, -1.734e-1
3.440e-1, -1.728e-1
3.450e-1, -1.723e-1
3.460e-1, -1.717e-1
3.470e-1, -1.712e-1
3.480e-1, -1.706e-1
3.490e-1, -1.700e-1
3.500e-1, -1.695e-1
3.510e-1, -1.689e-1
3.520e-1, -1.684e-1
3.530e-1, -1.678e-1
3.540e-1, -1.673e-1
3.550e-1, -1.668e-1
3.560e-1, -1.662e-1
3.570e-1, -1.657e-1
3.580e-1, -1.651e-1
3.590e-1, -1.646e-1
3.600e-1, -1.641e-1
3.610e-1, -1.635e-1
3.620e-1, -1.630e-1
3.630e-1, -1.625e-1
3.640e-1, -1.619e-1
3.650e-1, -1.614e-1
3.660e-1, -1.609e-1
3.670e-1, -1.603e-1
3.680e-1, -1.598e-1
3.690e-1, -1.593e-1
3.700e-1, -1.587e-1
3.710e-1, -1.582e-1
3.720e-1, -1.577e-1
3.730e-1, -1.571e-1
3.740e-1, -1.567e-1
3.750e-1, -1.561e-1
3.760e-1, -1.556e-1
3.770e-1, -1.551e-1
3.780e-1, -1.545e-1
3.790e-1, -1.540e-1
3.800e-1, -1.535e-1
3.810e-1, -1.530e-1
3.820e-1, -1.524e-1
3.830e-1, -1.519e-1
3.840e-1, -1.514e-1
3.850e-1, -1.509e-1
3.860e-1, -1.504e-1
3.870e-1, -1.498e-1
3.880e-1, -1.493e-1
3.890e-1, -1.488e-1
3.900e-1, -1.483e-1
3.910e-1, -1.478e-1
3.920e-1, -1.473e-1
3.930e-1, -1.467e-1
3.940e-1, -1.462e-1
3.950e-1, -1.457e-1
3.960e-1, -1.452e-1
3.970e-1, -1.447e-1
3.980e-1, -1.442e-1
3.990e-1, -1.437e-1
4.000e-1, -1.432e-1
4.010e-1, -1.427e-1
4.020e-1, -1.422e-1
4.030e-1, -1.417e-1
4.040e-1, -1.412e-1
4.050e-1, -1.407e-1
4.060e-1, -1.402e-1
4.070e-1, -1.397e-1
4.080e-1, -1.392e-1
4.090e-1, -1.387e-1
4.100e-1, -1.382e-1
4.110e-1, -1.377e-1
4.120e-1, -1.372e-1
4.130e-1, -1.367e-1
4.140e-1, -1.362e-1
4.150e-1, -1.357e-1
4.160e-1, -1.352e-1
4.170e-1, -1.347e-1
4.180e-1, -1.342e-1
4.190e-1, -1.337e-1
4.200e-1, -1.332e-1
4.210e-1, -1.327e-1
4.220e-1, -1.322e-1
4.230e-1, -1.317e-1
4.240e-1, -1.312e-1
4.250e-1, -1.307e-1
4.260e-1, -1.302e-1
4.270e-1, -1.298e-1
4.280e-1, -1.293e-1
4.290e-1, -1.288e-1
4.300e-1, -1.283e-1
4.310e-1, -1.278e-1
4.320e-1, -1.274e-1
4.330e-1, -1.269e-1
4.340e-1, -1.264e-1
4.350e-1, -1.259e-1
4.360e-1, -1.254e-1
4.370e-1, -1.249e-1
4.380e-1, -1.244e-1
4.390e-1, -1.240e-1
4.400e-1, -1.235e-1
4.410e-1, -1.230e-1
4.420e-1, -1.225e-1
4.430e-1, -1.221e-1
4.440e-1, -1.216e-1
4.450e-1, -1.211e-1
4.460e-1, -1.206e-1
4.470e-1, -1.202e-1
4.480e-1, -1.197e-1
4.490e-1, -1.192e-1
4.500e-1, -1.187e-1
4.510e-1, -1.183e-1
4.520e-1, -1.178e-1
4.530e-1, -1.173e-1
4.540e-1, -1.168e-1
4.550e-1, -1.164e-1
4.560e-1, -1.159e-1
4.570e-1, -1.154e-1
4.580e-1, -1.150e-1
4.590e-1, -1.145e-1
4.600e-1, -1.140e-1
4.610e-1, -1.136e-1
4.620e-1, -1.130e-1
4.630e-1, -1.126e-1
4.640e-1, -1.121e-1
4.650e-1, -1.117e-1
4.660e-1, -1.112e-1
4.670e-1, -1.107e-1
4.680e-1, -1.103e-1
4.690e-1, -1.098e-1
4.700e-1, -1.093e-1
4.710e-1, -1.088e-1
4.720e-1, -1.084e-1
4.730e-1, -1.079e-1
4.740e-1, -1.075e-1
4.750e-1, -1.070e-1
4.760e-1, -1.065e-1
4.770e-1, -1.061e-1
4.780e-1, -1.056e-1
4.790e-1, -1.052e-1
4.800e-1, -1.047e-1
4.810e-1, -1.042e-1
4.820e-1, -1.038e-1
4.830e-1, -1.033e-1
4.840e-1, -1.028e-1
4.850e-1, -1.024e-1
4.860e-1, -1.019e-1
4.870e-1, -1.015e-1
4.880e-1, -1.010e-1
4.890e-1, -1.006e-1
4.900e-1, -1.001e-1
4.910e-1, -9.963e-2
4.920e-1, -9.920e-2
4.930e-1, -9.872e-2
4.940e-1, -9.826e-2
4.950e-1, -9.782e-2
4.960e-1, -9.736e-2
4.970e-1, -9.692e-2
4.980e-1, -9.645e-2
4.990e-1, -9.600e-2
5.000e-1, -9.555e-2
5.010e-1, -9.510e-2
5.020e-1, -9.463e-2
5.030e-1, -9.417e-2
5.040e-1, -9.375e-2
5.050e-1, -9.325e-2
5.060e-1, -9.282e-2
5.070e-1, -9.234e-2
5.080e-1, -9.189e-2
5.090e-1, -9.150e-2
5.100e-1, -9.103e-2
5.110e-1, -9.058e-2
5.120e-1, -9.008e-2
5.130e-1, -8.966e-2
5.140e-1, -8.923e-2
5.150e-1, -8.875e-2
5.160e-1, -8.836e-2
5.170e-1, -8.787e-2
5.180e-1, -8.744e-2
5.190e-1, -8.696e-2
5.200e-1, -8.652e-2
5.210e-1, -8.608e-2
5.220e-1, -8.562e-2
5.230e-1, -8.521e-2
5.240e-1, -8.475e-2
5.250e-1, -8.433e-2
5.260e-1, -8.387e-2
5.270e-1, -8.343e-2
5.280e-1, -8.301e-2
5.290e-1, -8.254e-2
5.300e-1, -8.209e-2
5.310e-1, -8.162e-2
5.320e-1, -8.120e-2
5.330e-1, -8.076e-2
5.340e-1, -8.030e-2
5.350e-1, -7.986e-2
5.360e-1, -7.945e-2
5.370e-1, -7.900e-2
5.380e-1, -7.856e-2
5.390e-1, -7.809e-2
5.400e-1, -7.768e-2
5.410e-1, -7.721e-2
5.420e-1, -7.677e-2
5.430e-1, -7.633e-2
5.440e-1, -7.589e-2
5.450e-1, -7.546e-2
5.460e-1, -7.499e-2
5.470e-1, -7.455e-2
5.480e-1, -7.410e-2
5.490e-1, -7.368e-2
5.500e-1, -7.323e-2
5.510e-1, -7.281e-2
5.520e-1, -7.238e-2
5.530e-1, -7.191e-2
5.540e-1, -7.147e-2
5.550e-1, -7.103e-2
5.560e-1, -7.059e-2
5.570e-1, -7.020e-2
5.580e-1, -6.974e-2
5.590e-1, -6.932e-2
5.600e-1, -6.885e-2
5.610e-1, -6.840e-2
5.620e-1, -6.801e-2
5.630e-1, -6.756e-2
5.640e-1, -6.714e-2
5.650e-1, -6.669e-2
5.660e-1, -6.623e-2
5.670e-1, -6.582e-2
5.680e-1, -6.537e-2
5.690e-1, -6.493e-2
5.700e-1, -6.448e-2
5.710e-1, -6.405e-2
5.720e-1, -6.362e-2
5.730e-1, -6.318e-2
5.740e-1, -6.279e-2
5.750e-1, -6.232e-2
5.760e-1, -6.188e-2
5.770e-1, -6.144e-2
5.780e-1, -6.099e-2
5.790e-1, -6.056e-2
5.800e-1, -6.012e-2
5.810e-1, -5.975e-2
5.820e-1, -5.929e-2
5.830e-1, -5.887e-2
5.840e-1, -5.843e-2
5.850e-1, -5.800e-2
5.860e-1, -5.759e-2
5.870e-1, -5.715e-2
5.880e-1, -5.675e-2
5.890e-1, -5.627e-2
5.900e-1, -5.586e-2
5.910e-1, -5.543e-2
5.920e-1, -5.499e-2
5.930e-1, -5.458e-2
5.940e-1, -5.409e-2
5.950e-1, -5.367e-2
5.960e-1, -5.325e-2
5.970e-1, -5.283e-2
5.980e-1, -5.241e-2
5.990e-1, -5.196e-2
6.000e-1, -5.155e-2
6.010e-1, -5.112e-2
6.020e-1, -5.066e-2
6.030e-1, -5.025e-2
6.040e-1, -4.982e-2
6.050e-1, -4.944e-2
6.060e-1, -4.898e-2
6.070e-1, -4.857e-2
6.080e-1, -4.815e-2
6.090e-1, -4.770e-2
6.100e-1, -4.731e-2
6.110e-1, -4.685e-2
6.120e-1, -4.641e-2
6.130e-1, -4.597e-2
6.140e-1, -4.555e-2
6.150e-1, -4.520e-2
6.160e-1, -4.476e-2
6.170e-1, -4.436e-2
6.180e-1, -4.389e-2
6.190e-1, -4.346e-2
6.200e-1, -4.305e-2
6.210e-1, -4.263e-2
6.220e-1, -4.221e-2
6.230e-1, -4.177e-2
6.240e-1, -4.135e-2
6.250e-1, -4.096e-2
6.260e-1, -4.053e-2
6.270e-1, -4.010e-2
6.280e-1, -3.969e-2
6.290e-1, -3.931e-2
6.300e-1, -3.882e-2
6.310e-1, -3.843e-2
6.320e-1, -3.800e-2
6.330e-1, -3.760e-2
6.340e-1, -3.720e-2
6.350e-1, -3.674e-2
6.360e-1, -3.634e-2
6.370e-1, -3.590e-2
6.380e-1, -3.546e-2
6.390e-1, -3.507e-2
6.400e-1, -3.462e-2
6.410e-1, -3.422e-2
6.420e-1, -3.378e-2
6.430e-1, -3.336e-2
6.440e-1, -3.297e-2
6.450e-1, -3.254e-2
6.460e-1, -3.214e-2
6.470e-1, -3.167e-2
6.480e-1, -3.128e-2
6.490e-1, -3.086e-2
6.500e-1, -3.042e-2
6.510e-1, -3.004e-2
6.520e-1, -2.964e-2
6.530e-1, -2.920e-2
6.540e-1, -2.880e-2
6.550e-1, -2.834e-2
6.560e-1, -2.792e-2
6.570e-1, -2.750e-2
6.580e-1, -2.712e-2
6.590e-1, -2.671e-2
6.600e-1, -2.627e-2
6.610e-1, -2.585e-2
6.620e-1, -2.544e-2
6.630e-1, -2.505e-2
6.640e-1, -2.461e-2
6.650e-1, -2.423e-2
6.660e-1, -2.377e-2
6.670e-1, -2.337e-2
6.680e-1, -2.296e-2
6.690e-1, -2.255e-2
6.700e-1, -2.215e-2
6.710e-1, -2.169e-2
6.720e-1, -2.130e-2
6.730e-1, -2.086e-2
6.740e-1, -2.049e-2
6.750e-1, -2.010e-2
6.760e-1, -1.965e-2
6.770e-1, -1.928e-2
6.780e-1, -1.884e-2
6.790e-1, -1.842e-2
6.800e-1, -1.800e-2
6.810e-1, -1.755e-2
6.820e-1, -1.721e-2
6.830e-1, -1.676e-2
6.840e-1, -1.638e-2
6.850e-1, -1.597e-2
6.860e-1, -1.552e-2
6.870e-1, -1.515e-2
6.880e-1, -1.471e-2
6.890e-1, -1.433e-2
6.900e-1, -1.389e-2
6.910e-1, -1.345e-2
6.920e-1, -1.309e-2
6.930e-1, -1.265e-2
6.940e-1, -1.226e-2
6.950e-1, -1.182e-2
6.960e-1, -1.143e-2
6.970e-1, -1.102e-2
6.980e-1, -1.062e-2
6.990e-1, -1.023e-2
7.000e-1, -9.805e-3
7.010e-1, -9.385e-3
7.020e-1, -8.990e-3
7.030e-1, -8.577e-3
7.040e-1, -8.178e-3
7.050e-1, -7.789e-3
7.060e-1, -7.405e-3
7.070e-1, -6.967e-3
7.080e-1, -6.567e-3
7.090e-1, -6.163e-3
7.100e-1, -5.772e-3
7.110e-1, -5.398e-3
7.120e-1, -4.965e-3
7.130e-1, -4.544e-3
7.140e-1, -4.150e-3
7.150e-1, -3.740e-3
7.160e-1, -3.354e-3
7.170e-1, -2.935e-3
7.180e-1, -2.566e-3
7.190e-1, -2.109e-3
7.200e-1, -1.689e-3
7.210e-1, -1.339e-3
7.220e-1, -9.168e-4
7.230e-1, -5.414e-4
7.240e-1, -1.023e-4
7.250e-1, -3.264e-1
7.260e-1, -3.453e-1
7.270e-1, -3.626e-1
7.280e-1, -3.771e-1
7.290e-1, -3.899e-1
7.300e-1, -4.011e-1
7.310e-1, -4.114e-1
7.320e-1, -4.207e-1
7.330e-1, -4.291e-1
7.340e-1, -4.370e-1
7.350e-1, -4.443e-1
7.360e-1, -4.512e-1
7.370e-1, -4.580e-1
7.380e-1, -4.645e-1
7.390e-1, -4.706e-1
7.400e-1, -4.763e-1
7.410e-1, -4.819e-1
7.420e-1, -4.872e-1
7.430e-1, -4.922e-1
7.440e-1, -4.970e-1
7.450e-1, -5.017e-1
7.460e-1, -5.063e-1
7.470e-1, -5.107e-1
7.480e-1, -5.151e-1
7.490e-1, -5.194e-1
7.500e-1, -5.236e-1
7.510e-1, -5.278e-1
7.520e-1, -5.320e-1
7.530e-1, -5.362e-1
7.540e-1, -5.402e-1
7.550e-1, -5.440e-1
7.560e-1, -5.476e-1
7.570e-1, -5.508e-1
7.580e-1, -5.538e-1
7.590e-1, -5.565e-1
7.600e-1, -5.593e-1
7.610e-1, -5.621e-1
7.620e-1, -5.649e-1
7.630e-1, -5.677e-1
7.640e-1, -5.706e-1
7.650e-1, -5.735e-1
7.660e-1, -5.764e-1
7.670e-1, -5.795e-1
7.680e-1, -5.830e-1
7.690e-1, -5.866e-1
7.700e-1, -5.900e-1
7.710e-1, -5.930e-1
7.720e-1, -5.962e-1
7.730e-1, -5.995e-1
7.740e-1, -6.024e-1
7.750e-1, -6.043e-1
7.760e-1, -6.054e-1
7.770e-1, -6.069e-1
7.780e-1, -6.089e-1
7.790e-1, -6.114e-1
7.800e-1, -6.142e-1
7.810e-1, -6.170e-1
7.820e-1, -6.194e-1
7.830e-1, -6.215e-1
7.840e-1, -6.235e-1
7.850e-1, -6.255e-1
7.860e-1, -6.275e-1
7.870e-1, -6.295e-1
7.880e-1, -6.315e-1
7.890e-1, -6.334e-1
7.900e-1, -6.353e-1
7.910e-1, -6.373e-1
7.920e-1, -6.393e-1
7.930e-1, -6.412e-1
7.940e-1, -6.433e-1
7.950e-1, -6.453e-1
7.960e-1, -6.472e-1
7.970e-1, -6.492e-1
7.980e-1, -6.511e-1
7.990e-1, -6.531e-1
8.000e-1, -6.549e-1
8.010e-1, -6.568e-1
8.020e-1, -6.586e-1
8.030e-1, -6.603e-1
8.040e-1, -6.619e-1
8.050e-1, -6.635e-1
8.060e-1, -6.654e-1
8.070e-1, -6.673e-1
8.080e-1, -6.692e-1
8.090e-1, -6.708e-1
8.100e-1, -6.725e-1
8.110e-1, -6.741e-1
8.120e-1, -6.756e-1
8.130e-1, -6.772e-1
8.140e-1, -6.786e-1
8.150e-1, -6.800e-1
8.160e-1, -6.814e-1
8.170e-1, -6.827e-1
8.180e-1, -6.840e-1
8.190e-1, -6.852e-1
8.200e-1, -6.864e-1
8.210e-1, -6.876e-1
8.220e-1, -6.889e-1
8.230e-1, -6.902e-1
8.240e-1, -6.915e-1
8.250e-1, -6.928e-1
8.260e-1, -6.942e-1
8.270e-1, -6.955e-1
8.280e-1, -6.969e-1
8.290e-1, -6.982e-1
8.300e-1, -6.996e-1
8.310e-1, -7.009e-1
8.320e-1, -7.023e-1
8.330e-1, -7.036e-1
8.340e-1, -7.049e-1
8.350e-1, -7.063e-1
8.360e-1, -7.076e-1
8.370e-1, -7.089e-1
8.380e-1, -7.102e-1
8.390e-1, -7.115e-1
8.400e-1, -7.128e-1
8.410e-1, -7.141e-1
8.420e-1, -7.155e-1
8.430e-1, -7.167e-1
8.440e-1, -7.180e-1
8.450e-1, -7.193e-1
8.460e-1, -7.206e-1
8.470e-1, -7.219e-1
8.480e-1, -7.231e-1
8.490e-1, -7.244e-1
8.500e-1, -7.256e-1
8.510e-1, -7.268e-1
8.520e-1, -7.281e-1
8.530e-1, -7.293e-1
8.540e-1, -7.305e-1
8.550e-1, -7.318e-1
8.560e-1, -7.330e-1
8.570e-1, -7.342e-1
8.580e-1, -7.354e-1
8.590e-1, -7.366e-1
8.600e-1, -7.378e-1
8.610e-1, -7.390e-1
8.620e-1, -7.401e-1
8.630e-1, -7.413e-1
8.640e-1, -7.425e-1
8.650e-1, -7.437e-1
8.660e-1, -7.449e-1
8.670e-1, -7.460e-1
8.680e-1, -7.471e-1
8.690e-1, -7.483e-1
8.700e-1, -7.494e-1
8.710e-1, -7.506e-1
8.720e-1, -7.517e-1
8.730e-1, -7.528e-1
8.740e-1, -7.539e-1
8.750e-1, -7.550e-1
8.760e-1, -7.562e-1
8.770e-1, -7.572e-1
8.780e-1, -7.584e-1
8.790e-1, -7.594e-1
8.800e-1, -7.605e-1
8.810e-1, -7.616e-1
8.820e-1, -7.627e-1
8.830e-1, -7.638e-1
8.840e-1, -7.649e-1
8.850e-1, -7.659e-1
8.860e-1, -7.670e-1
8.870e-1, -7.681e-1
8.880e-1, -7.691e-1
8.890e-1, -7.702e-1
8.900e-1, -7.713e-1
8.910e-1, -7.723e-1
8.920e-1, -7.733e-1
8.930e-1, -7.744e-1
8.940e-1, -7.754e-1
8.950e-1, -7.765e-1
8.960e-1, -7.774e-1
8.970e-1, -7.785e-1
8.980e-1, -7.795e-1
8.990e-1, -7.805e-1
9.000e-1, -7.816e-1
9.010e-1, -7.826e-1
9.020e-1, -7.836e-1
9.030e-1, -7.846e-1
9.040e-1, -7.856e-1
9.050e-1, -7.865e-1
9.060e-1, -7.876e-1
9.070e-1, -7.885e-1
9.080e-1, -7.895e-1
9.090e-1, -7.905e-1
9.100e-1, -7.914e-1
9.110e-1, -7.924e-1
9.120e-1, -7.934e-1
9.130e-1, -7.944e-1
9.140e-1, -7.954e-1
9.150e-1, -7.963e-1
9.160e-1, -7.973e-1
9.170e-1, -7.983e-1
9.180e-1, -7.992e-1
9.190e-1, -8.002e-1
9.200e-1, -8.011e-1
9.210e-1, -8.020e-1
9.220e-1, -8.030e-1
9.230e-1, -8.039e-1
9.240e-1, -8.049e-1
9.250e-1, -8.058e-1
9.260e-1, -8.067e-1
9.270e-1, -8.077e-1
9.280e-1, -8.086e-1
9.290e-1, -8.095e-1
9.300e-1, -8.105e-1
9.310e-1, -8.114e-1
9.320e-1, -8.123e-1
9.330e-1, -8.132e-1
9.340e-1, -8.141e-1
9.350e-1, -8.150e-1
9.360e-1, -8.160e-1
9.370e-1, -8.168e-1
9.380e-1, -8.178e-1
9.390e-1, -8.187e-1
9.400e-1, -8.195e-1
9.410e-1, -8.205e-1
9.420e-1, -8.213e-1
9.430e-1, -8.222e-1
9.440e-1, -8.231e-1
9.450e-1, -8.240e-1
9.460e-1, -8.249e-1
9.470e-1, -8.258e-1
9.480e-1, -8.267e-1
9.490e-1, -8.275e-1
9.500e-1, -8.284e-1
9.510e-1, -8.292e-1
9.520e-1, -8.301e-1
9.530e-1, -8.310e-1
9.540e-1, -8.319e-1
9.550e-1, -8.327e-1
9.560e-1, -8.336e-1
9.570e-1, -8.344e-1
9.580e-1, -8.353e-1
9.590e-1, -8.362e-1
9.600e-1, -8.370e-1
9.610e-1, -8.379e-1
9.620e-1, -8.388e-1
9.630e-1, -8.396e-1
9.640e-1, -8.404e-1
9.650e-1, -8.413e-1
9.660e-1, -8.421e-1
9.670e-1, -8.430e-1
9.680e-1, -8.438e-1
9.690e-1, -8.446e-1
9.700e-1, -8.455e-1
9.710e-1, -8.463e-1
9.720e-1, -8.472e-1
9.730e-1, -8.480e-1
9.740e-1, -8.488e-1
9.750e-1, -8.496e-1
9.760e-1, -8.505e-1
9.770e-1, -8.513e-1
9.780e-1, -8.521e-1
9.790e-1, -8.529e-1
9.800e-1, -8.537e-1
9.810e-1, -8.546e-1
9.820e-1, -8.554e-1
9.830e-1, -8.562e-1
9.840e-1, -8.571e-1
9.850e-1, -8.579e-1
9.860e-1, -8.586e-1
9.870e-1, -8.595e-1
9.880e-1, -8.603e-1
9.890e-1, -8.611e-1
9.900e-1, -8.619e-1
9.910e-1, -8.627e-1
9.920e-1, -8.635e-1
9.930e-1, -8.643e-1
9.940e-1, -8.651e-1
9.950e-1, -8.659e-1
9.960e-1, -8.667e-1
9.970e-1, -8.675e-1
9.980e-1, -8.682e-1
9.990e-1, -8.690e-1
1.000e+0, -8.698e-1
1.001e+0, -8.706e-1
1.002e+0, -8.714e-1
1.003e+0, -8.722e-1
1.004e+0, -8.729e-1
1.005e+0, -8.737e-1
1.006e+0, -8.745e-1
1.007e+0, -8.753e-1
1.008e+0, -8.761e-1
1.009e+0, -8.769e-1
1.010e+0, -8.776e-1
1.011e+0, -8.784e-1
1.012e+0, -8.792e-1
1.013e+0, -8.800e-1
1.014e+0, -8.807e-1
1.015e+0, -8.815e-1
1.016e+0, -8.823e-1
1.017e+0, -8.830e-1
1.018e+0, -8.839e-1
1.019e+0, -8.846e-1
1.020e+0, -8.854e-1
1.021e+0, -8.861e-1
1.022e+0, -8.868e-1
1.023e+0, -8.876e-1
1.024e+0, -8.884e-1
1.025e+0, -8.892e-1
1.026e+0, -8.899e-1
1.027e+0, -8.907e-1
1.028e+0, -8.914e-1
1.029e+0, -8.922e-1
1.030e+0, -8.929e-1
1.031e+0, -8.937e-1
1.032e+0, -8.944e-1
1.033e+0, -8.952e-1
1.034e+0, -8.959e-1
1.035e+0, -8.966e-1
1.036e+0, -8.974e-1
1.037e+0, -8.982e-1
1.038e+0, -8.989e-1
1.039e+0, -8.997e-1
1.040e+0, -9.004e-1
1.041e+0, -9.011e-1
1.042e+0, -9.019e-1
1.043e+0, -9.026e-1
1.044e+0, -9.034e-1
1.045e+0, -9.041e-1
1.046e+0, -9.048e-1
1.047e+0, -9.056e-1
1.048e+0, -9.063e-1
1.049e+0, -9.070e-1
1.050e+0, -9.077e-1
1.051e+0, -9.085e-1
1.052e+0, -9.092e-1
1.053e+0, -9.099e-1
1.054e+0, -9.107e-1
1.055e+0, -9.114e-1
1.056e+0, -9.121e-1
1.057e+0, -9.128e-1
1.058e+0, -9.136e-1
1.059e+0, -9.143e-1
1.060e+0, -9.150e-1
1.061e+0, -9.157e-1
1.062e+0, -9.165e-1
1.063e+0, -9.172e-1
1.064e+0, -9.179e-1
1.065e+0, -9.186e-1
1.066e+0, -9.193e-1
1.067e+0, -9.200e-1
1.068e+0, -9.208e-1
1.069e+0, -9.215e-1
1.070e+0, -9.222e-1
1.071e+0, -9.229e-1
1.072e+0, -9.236e-1
1.073e+0, -9.243e-1
1.074e+0, -9.250e-1
1.075e+0, -9.257e-1
1.076e+0, -9.264e-1
1.077e+0, -9.272e-1
1.078e+0, -9.279e-1
1.079e+0, -9.286e-1
1.080e+0, -9.293e-1
1.081e+0, -9.300e-1
1.082e+0, -9.307e-1
1.083e+0, -9.314e-1
1.084e+0, -9.321e-1
1.085e+0, -9.328e-1
1.086e+0, -9.335e-1
1.087e+0, -9.342e-1
1.088e+0, -9.349e-1
1.089e+0, -9.356e-1
1.090e+0, -9.363e-1
1.091e+0, -9.370e-1
1.092e+0, -9.377e-1
1.093e+0, -9.384e-1
1.094e+0, -9.391e-1
1.095e+0, -9.398e-1
1.096e+0, -9.405e-1
1.097e+0, -9.412e-1
1.098e+0, -9.418e-1
1.099e+0, -9.425e-1
1.100e+0, -9.432e-1
1.101e+0, -9.439e-1
1.102e+0, -9.446e-1
1.103e+0, -9.453e-1
1.104e+0, -9.460e-1
1.105e+0, -9.466e-1
1.106e+0, -9.473e-1
1.107e+0, -9.480e-1
1.108e+0, -9.487e-1
1.109e+0, -9.494e-1
1.110e+0, -9.501e-1
1.111e+0, -9.507e-1
1.112e+0, -9.514e-1
1.113e+0, -9.521e-1
1.114e+0, -9.528e-1
1.115e+0, -9.535e-1
1.116e+0, -9.541e-1
1.117e+0, -9.548e-1
1.118e+0, -9.555e-1
1.119e+0, -9.562e-1
1.120e+0, -9.569e-1
1.121e+0, -9.575e-1
1.122e+0, -9.582e-1
1.123e+0, -9.589e-1
1.124e+0, -9.596e-1
1.125e+0, -9.602e-1
1.126e+0, -9.609e-1
1.127e+0, -9.615e-1
1.128e+0, -9.622e-1
1.129e+0, -9.629e-1
1.130e+0, -9.636e-1
1.131e+0, -9.643e-1
1.132e+0, -9.649e-1
1.133e+0, -9.656e-1
1.134e+0, -9.663e-1
1.135e+0, -9.669e-1
1.136e+0, -9.676e-1
1.137e+0, -9.683e-1
1.138e+0, -9.690e-1
1.139e+0, -9.696e-1
1.140e+0, -9.703e-1
1.141e+0, -9.709e-1
1.142e+0, -9.716e-1
1.143e+0, -9.722e-1
1.144e+0, -9.729e-1
1.145e+0, -9.736e-1
1.146e+0, -9.742e-1
1.147e+0, -9.749e-1
1.148e+0, -9.756e-1
1.149e+0, -9.762e-1
1.150e+0, -9.769e-1
1.151e+0, -9.775e-1
1.152e+0, -9.782e-1
1.153e+0, -9.789e-1
1.154e+0, -9.795e-1
1.155e+0, -9.802e-1
1.156e+0, -9.808e-1
1.157e+0, -9.814e-1
1.158e+0, -9.821e-1
1.159e+0, -9.827e-1
1.160e+0, -9.834e-1
1.161e+0, -9.840e-1
1.162e+0, -9.847e-1
1.163e+0, -9.853e-1
1.164e+0, -9.860e-1
1.165e+0, -9.866e-1
1.166e+0, -9.873e-1
1.167e+0, -9.880e-1
1.168e+0, -9.886e-1
1.169e+0, -9.892e-1
1.170e+0, -9.898e-1
1.171e+0, -9.905e-1
1.172e+0, -9.912e-1
1.173e+0, -9.918e-1
1.174e+0, -9.924e-1
1.175e+0, -9.931e-1
1.176e+0, -9.937e-1
1.177e+0, -9.943e-1
1.178e+0, -9.950e-1
1.179e+0, -9.956e-1
1.180e+0, -9.963e-1
1.181e+0, -9.969e-1
1.182e+0, -9.976e-1
1.183e+0, -9.982e-1
1.184e+0, -9.988e-1
1.185e+0, -9.995e-1
1.186e+0, -6.082e-1
1.187e+0, -5.949e-1
1.188e+0, -5.766e-1
1.189e+0, -5.648e-1
1.190e+0, -5.544e-1
1.191e+0, -5.451e-1
1.192e+0, -5.369e-1
1.193e+0, -5.298e-1
1.194e+0, -5.229e-1
1.195e+0, -5.161e-1
1.196e+0, -5.094e-1
1.197e+0, -5.030e-1
1.198e+0, -4.965e-1
1.199e+0, -4.903e-1
1.200e+0, -4.844e-1
1.201e+0, -4.788e-1
1.202e+0, -4.734e-1
1.203e+0, -4.681e-1
1.204e+0, -4.631e-1
1.205e+0, -4.583e-1
1.206e+0, -4.536e-1
1.207e+0, -4.490e-1
1.208e+0, -4.446e-1
1.209e+0, -4.404e-1
1.210e+0, -4.362e-1
1.211e+0, -4.322e-1
1.212e+0, -4.283e-1
1.213e+0, -4.244e-1
1.214e+0, -4.208e-1
1.215e+0, -4.171e-1
1.216e+0, -4.136e-1
1.217e+0, -4.101e-1
1.218e+0, -4.067e-1
1.219e+0, -4.034e-1
1.220e+0, -4.001e-1
1.221e+0, -3.970e-1
1.222e+0, -3.939e-1
1.223e+0, -3.908e-1
1.224e+0, -3.878e-1
1.225e+0, -3.849e-1
1.226e+0, -3.820e-1
1.227e+0, -3.791e-1
1.228e+0, -3.763e-1
1.229e+0, -3.736e-1
1.230e+0, -3.709e-1
1.231e+0, -3.682e-1
1.232e+0, -3.656e-1
1.233e+0, -3.630e-1
1.234e+0, -3.605e-1
1.235e+0, -3.580e-1
1.236e+0, -3.556e-1
1.237e+0, -3.531e-1
1.238e+0, -3.507e-1
1.239e+0, -3.483e-1
1.240e+0, -3.459e-1
1.241e+0, -3.436e-1
1.242e+0, -3.413e-1
1.243e+0, -3.391e-1
1.244e+0, -3.368e-1
1.245e+0, -3.345e-1
1.246e+0, -3.323e-1
1.247e+0, -3.302e-1
1.248e+0, -3.280e-1
1.249e+0, -3.259e-1
1.250e+0, -3.238e-1
1.251e+0, -3.217e-1
1.252e+0, -3.197e-1
1.253e+0, -3.177e-1
1.254e+0, -3.158e-1
1.255e+0, -3.139e-1
1.256e+0, -3.120e-1
1.257e+0, -3.101e-1
1.258e+0, -3.083e-1
1.259e+0, -3.067e-1
1.260e+0, -3.051e-1
1.261e+0, -3.036e-1
1.262e+0, -3.022e-1
1.263e+0, -3.007e-1
1.264e+0, -2.991e-1
1.265e+0, -2.975e-1
1.266e+0, -2.959e-1
1.267e+0, -2.943e-1
1.268e+0, -2.926e-1
1.269e+0, -2.910e-1
1.270e+0, -2.893e-1
1.271e+0, -2.876e-1
1.272e+0, -2.860e-1
1.273e+0, -2.842e-1
1.274e+0, -2.825e-1
1.275e+0, -2.805e-1
1.276e+0, -2.786e-1
1.277e+0, -2.766e-1
1.278e+0, -2.744e-1
1.279e+0, -2.723e-1
1.280e+0, -2.703e-1
1.281e+0, -2.685e-1
1.282e+0, -2.670e-1
1.283e+0, -2.656e-1
1.284e+0, -2.647e-1
1.285e+0, -2.637e-1
1.286e+0, -2.626e-1
1.287e+0, -2.614e-1
1.288e+0, -2.601e-1
1.289e+0, -2.590e-1
1.290e+0, -2.581e-1
1.291e+0, -2.573e-1
1.292e+0, -2.566e-1
1.293e+0, -2.558e-1
1.294e+0, -2.549e-1
1.295e+0, -2.539e-1
1.296e+0, -2.529e-1
1.297e+0, -2.518e-1
1.298e+0, -2.507e-1
1.299e+0, -2.496e-1
1.300e+0, -2.485e-1
1.301e+0, -2.474e-1
1.302e+0, -2.462e-1
1.303e+0, -2.451e-1
1.304e+0, -2.439e-1
1.305e+0, -2.428e-1
1.306e+0, -2.417e-1
1.307e+0, -2.406e-1
1.308e+0, -2.395e-1
1.309e+0, -2.383e-1
1.310e+0, -2.372e-1
1.311e+0, -2.361e-1
1.312e+0, -2.350e-1
1.313e+0, -2.339e-1
1.314e+0, -2.328e-1
1.315e+0, -2.318e-1
1.316e+0, -2.307e-1
1.317e+0, -2.296e-1
1.318e+0, -2.285e-1
1.319e+0, -2.274e-1
1.320e+0, -2.264e-1
1.321e+0, -2.254e-1
1.322e+0, -2.243e-1
1.323e+0, -2.232e-1
1.324e+0, -2.222e-1
1.325e+0, -2.212e-1
1.326e+0, -2.202e-1
1.327e+0, -2.192e-1
1.328e+0, -2.181e-1
1.329e+0, -2.171e-1
1.330e+0, -2.161e-1
1.331e+0, -2.151e-1
1.332e+0, -2.142e-1
1.333e+0, -2.131e-1
1.334e+0, -2.122e-1
1.335e+0, -2.112e-1
1.336e+0, -2.102e-1
1.337e+0, -2.092e-1
1.338e+0, -2.083e-1
1.339e+0, -2.073e-1
1.340e+0, -2.064e-1
1.341e+0, -2.054e-1
1.342e+0, -2.045e-1
1.343e+0, -2.036e-1
1.344e+0, -2.026e-1
1.345e+0, -2.017e-1
1.346e+0, -2.008e-1
1.347e+0, -1.998e-1
1.348e+0, -1.989e-1
1.349e+0, -1.981e-1
1.350e+0, -1.971e-1
1.351e+0, -1.962e-1
1.352e+0, -1.953e-1
1.353e+0, -1.944e-1
1.354e+0, -1.936e-1
1.355e+0, -1.926e-1
1.356e+0, -1.918e-1
1.357e+0, -1.909e-1
1.358e+0, -1.900e-1
1.359e+0, -1.891e-1
1.360e+0, -1.883e-1
1.361e+0, -1.874e-1
1.362e+0, -1.866e-1
1.363e+0, -1.857e-1
1.364e+0, -1.849e-1
1.365e+0, -1.840e-1
1.366e+0, -1.831e-1
1.367e+0, -1.823e-1
1.368e+0, -1.815e-1
1.369e+0, -1.806e-1
1.370e+0, -1.798e-1
1.371e+0, -1.790e-1
1.372e+0, -1.781e-1
1.373e+0, -1.774e-1
1.374e+0, -1.765e-1
1.375e+0, -1.757e-1
1.376e+0, -1.749e-1
1.377e+0, -1.741e-1
1.378e+0, -1.733e-1
1.379e+0, -1.725e-1
1.380e+0, -1.717e-1
1.381e+0, -1.709e-1
1.382e+0, -1.701e-1
1.383e+0, -1.693e-1
1.384e+0, -1.685e-1
1.385e+0, -1.677e-1
1.386e+0, -1.669e-1
1.387e+0, -1.662e-1
1.388e+0, -1.654e-1
1.389e+0, -1.647e-1
1.390e+0, -1.639e-1
1.391e+0, -1.631e-1
1.392e+0, -1.624e-1
1.393e+0, -1.616e-1
1.394e+0, -1.609e-1
1.395e+0, -1.601e-1
1.396e+0, -1.594e-1
1.397e+0, -1.586e-1
1.398e+0, -1.579e-1
1.399e+0, -1.571e-1
1.400e+0, -1.564e-1
1.401e+0, -1.556e-1
1.402e+0, -1.549e-1
1.403e+0, -1.542e-1
1.404e+0, -1.535e-1
1.405e+0, -1.527e-1
1.406e+0, -1.520e-1
1.407e+0, -1.512e-1
1.408e+0, -1.505e-1
1.409e+0, -1.498e-1
1.410e+0, -1.491e-1
1.411e+0, -1.483e-1
1.412e+0, -1.476e-1
1.413e+0, -1.470e-1
1.414e+0, -1.462e-1
1.415e+0, -1.455e-1
1.416e+0, -1.448e-1
1.417e+0, -1.441e-1
1.418e+0, -1.434e-1
1.419e+0, -1.427e-1
1.420e+0, -1.420e-1
1.421e+0, -1.414e-1
1.422e+0, -1.406e-1
1.423e+0, -1.399e-1
1.424e+0, -1.392e-1
1.425e+0, -1.385e-1
1.426e+0, -1.379e-1
1.427e+0, -1.372e-1
1.428e+0, -1.365e-1
1.429e+0, -1.358e-1
1.430e+0, -1.352e-1
1.431e+0, -1.345e-1
1.432e+0, -1.338e-1
1.433e+0, -1.331e-1
1.434e+0, -1.324e-1
1.435e+0, -1.318e-1
1.436e+0, -1.311e-1
1.437e+0, -1.305e-1
1.438e+0, -1.298e-1
1.439e+0, -1.291e-1
1.440e+0, -1.285e-1
1.441e+0, -1.278e-1
1.442e+0, -1.272e-1
1.443e+0, -1.265e-1
1.444e+0, -1.259e-1
1.445e+0, -1.252e-1
1.446e+0, -1.246e-1
1.447e+0, -1.239e-1
1.448e+0, -1.233e-1
1.449e+0, -1.227e-1
1.450e+0, -1.221e-1
1.451e+0, -1.214e-1
1.452e+0, -1.208e-1
1.453e+0, -1.201e-1
1.454e+0, -1.195e-1
1.455e+0, -1.188e-1
1.456e+0, -1.182e-1
1.457e+0, -1.176e-1
1.458e+0, -1.170e-1
1.459e+0, -1.163e-1
1.460e+0, -1.157e-1
1.461e+0, -1.151e-1
1.462e+0, -1.145e-1
1.463e+0, -1.138e-1
1.464e+0, -1.132e-1
1.465e+0, -1.126e-1
1.466e+0, -1.120e-1
1.467e+0, -1.113e-1
1.468e+0, -1.107e-1
1.469e+0, -1.101e-1
1.470e+0, -1.095e-1
1.471e+0, -1.089e-1
1.472e+0, -1.083e-1
1.473e+0, -1.077e-1
1.474e+0, -1.071e-1
1.475e+0, -1.065e-1
1.476e+0, -1.059e-1
1.477e+0, -1.053e-1
1.478e+0, -1.047e-1
1.479e+0, -1.041e-1
1.480e+0, -1.034e-1
1.481e+0, -1.029e-1
1.482e+0, -1.022e-1
1.483e+0, -1.017e-1
1.484e+0, -1.011e-1
1.485e+0, -1.005e-1
1.486e+0, -9.994e-2
1.487e+0, -9.930e-2
1.488e+0, -9.873e-2
1.489e+0, -9.813e-2
1.490e+0, -9.755e-2
1.491e+0, -9.696e-2
1.492e+0, -9.635e-2
1.493e+0, -9.582e-2
1.494e+0, -9.521e-2
1.495e+0, -9.463e-2
1.496e+0, -9.400e-2
1.497e+0, -9.343e-2
1.498e+0, -9.287e-2
1.499e+0, -9.228e-2
1.500e+0, -9.172e-2
1.501e+0, -9.112e-2
1.502e+0, -9.056e-2
1.503e+0, -9.003e-2
1.504e+0, -8.941e-2
1.505e+0, -8.887e-2
1.506e+0, -8.831e-2
1.507e+0, -8.771e-2
1.508e+0, -8.717e-2
1.509e+0, -8.657e-2
1.510e+0, -8.604e-2
1.511e+0, -8.545e-2
1.512e+0, -8.489e-2
1.513e+0, -8.436e-2
1.514e+0, -8.379e-2
1.515e+0, -8.326e-2
1.516e+0, -8.268e-2
1.517e+0, -8.212e-2
1.518e+0, -8.156e-2
1.519e+0, -8.100e-2
1.520e+0, -8.046e-2
1.521e+0, -7.990e-2
1.522e+0, -7.937e-2
1.523e+0, -7.881e-2
1.524e+0, -7.825e-2
1.525e+0, -7.767e-2
1.526e+0, -7.713e-2
1.527e+0, -7.665e-2
1.528e+0, -7.605e-2
1.529e+0, -7.552e-2
1.530e+0, -7.494e-2
1.531e+0, -7.438e-2
1.532e+0, -7.387e-2
1.533e+0, -7.332e-2
1.534e+0, -7.279e-2
1.535e+0, -7.224e-2
1.536e+0, -7.168e-2
1.537e+0, -7.115e-2
1.538e+0, -7.061e-2
1.539e+0, -7.007e-2
1.540e+0, -6.953e-2
1.541e+0, -6.903e-2
1.542e+0, -6.847e-2
1.543e+0, -6.795e-2
1.544e+0, -6.741e-2
1.545e+0, -6.686e-2
1.546e+0, -6.636e-2
1.547e+0, -6.580e-2
1.548e+0, -6.528e-2
1.549e+0, -6.473e-2
1.550e+0, -6.420e-2
1.551e+0, -6.370e-2
1.552e+0, -6.315e-2
1.553e+0, -6.264e-2
1.554e+0, -6.207e-2
1.555e+0, -6.151e-2
1.556e+0, -6.104e-2
1.557e+0, -6.050e-2
1.558e+0, -6.000e-2
1.559e+0, -5.946e-2
1.560e+0, -5.895e-2
1.561e+0, -5.842e-2
1.562e+0, -5.792e-2
1.563e+0, -5.741e-2
1.564e+0, -5.686e-2
1.565e+0, -5.636e-2
1.566e+0, -5.584e-2
1.567e+0, -5.534e-2
1.568e+0, -5.480e-2
1.569e+0, -5.426e-2
1.570e+0, -5.378e-2
1.571e+0, -5.325e-2
1.572e+0, -5.273e-2
1.573e+0, -5.219e-2
1.574e+0, -5.170e-2
1.575e+0, -5.122e-2
1.576e+0, -5.069e-2
1.577e+0, -5.021e-2
1.578e+0, -4.967e-2
1.579e+0, -4.917e-2
1.580e+0, -4.869e-2
1.581e+0, -4.817e-2
1.582e+0, -4.770e-2
1.583e+0, -4.714e-2
1.584e+0, -4.663e-2
1.585e+0, -4.616e-2
1.586e+0, -4.565e-2
1.587e+0, -4.517e-2
1.588e+0, -4.466e-2
1.589e+0, -4.417e-2
1.590e+0, -4.367e-2
1.591e+0, -4.314e-2
1.592e+0, -4.266e-2
1.593e+0, -4.216e-2
1.594e+0, -4.166e-2
1.595e+0, -4.117e-2
1.596e+0, -4.067e-2
1.597e+0, -4.015e-2
1.598e+0, -3.967e-2
1.599e+0, -3.921e-2
1.600e+0, -3.870e-2
1.601e+0, -3.819e-2
1.602e+0, -3.768e-2
1.603e+0, -3.723e-2
1.604e+0, -3.675e-2
1.605e+0, -3.623e-2
1.606e+0, -3.577e-2
1.607e+0, -3.525e-2
1.608e+0, -3.473e-2
1.609e+0, -3.422e-2
1.610e+0, -3.374e-2
1.611e+0, -3.329e-2
1.612e+0, -3.278e-2
1.613e+0, -3.228e-2
1.614e+0, -3.181e-2
1.615e+0, -3.132e-2
1.616e+0, -3.086e-2
1.617e+0, -3.037e-2
1.618e+0, -2.992e-2
1.619e+0, -2.941e-2
1.620e+0, -2.894e-2
1.621e+0, -2.840e-2
1.622e+0, -2.797e-2
1.623e+0, -2.753e-2
1.624e+0, -2.700e-2
1.625e+0, -2.653e-2
1.626e+0, -2.603e-2
1.627e+0, -2.554e-2
1.628e+0, -2.512e-2
1.629e+0, -2.460e-2
1.630e+0, -2.412e-2
1.631e+0, -2.363e-2
1.632e+0, -2.314e-2
1.633e+0, -2.269e-2
1.634e+0, -2.221e-2
1.635e+0, -2.174e-2
1.636e+0, -2.125e-2
1.637e+0, -2.078e-2
1.638e+0, -2.032e-2
1.639e+0, -1.986e-2
1.640e+0, -1.941e-2
1.641e+0, -1.891e-2
1.642e+0, -1.844e-2
1.643e+0, -1.801e-2
1.644e+0, -1.749e-2
1.645e+0, -1.702e-2
1.646e+0, -1.655e-2
1.647e+0, -1.611e-2
1.648e+0, -1.563e-2
1.649e+0, -1.514e-2
1.650e+0, -1.468e-2
1.651e+0, -1.420e-2
1.652e+0, -1.377e-2
1.653e+0, -1.327e-2
1.654e+0, -1.286e-2
1.655e+0, -1.233e-2
1.656e+0, -1.189e-2
1.657e+0, -1.144e-2
1.658e+0, -1.099e-2
1.659e+0, -1.054e-2
1.660e+0, -1.003e-2
1.661e+0, -9.578e-3
1.662e+0, -9.128e-3
1.663e+0, -8.638e-3
1.664e+0, -8.232e-3
1.665e+0, -7.761e-3
1.666e+0, -7.310e-3
1.667e+0, -6.830e-3
1.668e+0, -6.388e-3
1.669e+0, -5.907e-3
1.670e+0, -5.488e-3
1.671e+0, -5.052e-3
1.672e+0, -4.578e-3
1.673e+0, -4.112e-3
1.674e+0, -3.639e-3
1.675e+0, -3.207e-3
1.676e+0, -2.786e-3
1.677e+0, -2.318e-3
1.678e+0, -1.879e-3
1.679e+0, -1.371e-3
1.680e+0, -9.505e-4
1.681e+0, -5.440e-4
1.682e+0, -5.257e-5
1.683e+0, -3.259e-1
1.684e+0, -3.451e-1
1.685e+0, -3.624e-1
1.686e+0, -3.769e-1
1.687e+0, -3.896e-1
1.688e+0, -4.009e-1
1.689e+0, -4.110e-1
1.690e+0, -4.203e-1
1.691e+0, -4.287e-1
1.692e+0, -4.365e-1
1.693e+0, -4.438e-1
1.694e+0, -4.507e-1
1.695e+0, -4.575e-1
1.696e+0, -4.639e-1
1.697e+0, -4.699e-1
1.698e+0, -4.757e-1
1.699e+0, -4.812e-1
1.700e+0, -4.864e-1
1.701e+0, -4.915e-1
1.702e+0, -4.963e-1
1.703e+0, -5.009e-1
1.704e+0, -5.055e-1
1.705e+0, -5.099e-1
1.706e+0, -5.142e-1
1.707e+0, -5.184e-1
1.708e+0, -5.226e-1
1.709e+0, -5.268e-1
1.710e+0, -5.309e-1
1.711e+0, -5.350e-1
1.712e+0, -5.390e-1
1.713e+0, -5.428e-1
1.714e+0, -5.464e-1
1.715e+0, -5.496e-1
1.716e+0, -5.525e-1
1.717e+0, -5.552e-1
1.718e+0, -5.580e-1
1.719e+0, -5.607e-1
1.720e+0, -5.635e-1
1.721e+0, -5.663e-1
1.722e+0, -5.691e-1
1.723e+0, -5.719e-1
1.724e+0, -5.749e-1
1.725e+0, -5.780e-1
1.726e+0, -5.813e-1
1.727e+0, -5.848e-1
1.728e+0, -5.882e-1
1.729e+0, -5.912e-1
1.730e+0, -5.944e-1
1.731e+0, -5.975e-1
1.732e+0, -6.004e-1
1.733e+0, -6.023e-1
1.734e+0, -6.035e-1
1.735e+0, -6.050e-1
1.736e+0, -6.069e-1
1.737e+0, -6.093e-1
1.738e+0, -6.120e-1
1.739e+0, -6.147e-1
1.740e+0, -6.172e-1
1.741e+0, -6.193e-1
1.742e+0, -6.212e-1
1.743e+0, -6.232e-1
1.744e+0, -6.252e-1
1.745e+0, -6.272e-1
1.746e+0, -6.291e-1
1.747e+0, -6.310e-1
1.748e+0, -6.329e-1
1.749e+0, -6.347e-1
1.750e+0, -6.367e-1
1.751e+0, -6.386e-1
1.752e+0, -6.406e-1
1.753e+0, -6.426e-1
1.754e+0, -6.445e-1
1.755e+0, -6.464e-1
1.756e+0, -6.483e-1
1.757e+0, -6.502e-1
1.758e+0, -6.521e-1
1.759e+0, -6.539e-1
1.760e+0, -6.557e-1
1.761e+0, -6.574e-1
1.762e+0, -6.589e-1
1.763e+0, -6.605e-1
1.764e+0, -6.624e-1
1.765e+0, -6.642e-1
1.766e+0, -6.660e-1
1.767e+0, -6.677e-1
1.768e+0, -6.693e-1
1.769e+0, -6.709e-1
1.770e+0, -6.724e-1
1.771e+0, -6.739e-1
1.772e+0, -6.753e-1
1.773e+0, -6.767e-1
1.774e+0, -6.780e-1
1.775e+0, -6.792e-1
1.776e+0, -6.804e-1
1.777e+0, -6.816e-1
1.778e+0, -6.829e-1
1.779e+0, -6.840e-1
1.780e+0, -6.853e-1
1.781e+0, -6.865e-1
1.782e+0, -6.878e-1
1.783e+0, -6.891e-1
1.784e+0, -6.904e-1
1.785e+0, -6.917e-1
1.786e+0, -6.930e-1
1.787e+0, -6.943e-1
1.788e+0, -6.957e-1
1.789e+0, -6.969e-1
1.790e+0, -6.982e-1
1.791e+0, -6.995e-1
1.792e+0, -7.008e-1
1.793e+0, -7.022e-1
1.794e+0, -7.035e-1
1.795e+0, -7.048e-1
1.796e+0, -7.061e-1
1.797e+0, -7.073e-1
1.798e+0, -7.086e-1
1.799e+0, -7.099e-1
1.800e+0, -7.111e-1
1.801e+0, -7.124e-1
1.802e+0, -7.136e-1
1.803e+0, -7.148e-1
1.804e+0, -7.161e-1
1.805e+0, -7.173e-1
1.806e+0, -7.185e-1
1.807e+0, -7.198e-1
1.808e+0, -7.210e-1
1.809e+0, -7.222e-1
1.810e+0, -7.234e-1
1.811e+0, -7.246e-1
1.812e+0, -7.258e-1
1.813e+0, -7.270e-1
1.814e+0, -7.282e-1
1.815e+0, -7.294e-1
1.816e+0, -7.305e-1
1.817e+0, -7.317e-1
1.818e+0, -7.328e-1
1.819e+0, -7.340e-1
1.820e+0, -7.352e-1
1.821e+0, -7.363e-1
1.822e+0, -7.374e-1
1.823e+0, -7.386e-1
1.824e+0, -7.397e-1
1.825e+0, -7.408e-1
1.826e+0, -7.420e-1
1.827e+0, -7.431e-1
1.828e+0, -7.442e-1
1.829e+0, -7.453e-1
1.830e+0, -7.463e-1
1.831e+0, -7.475e-1
1.832e+0, -7.485e-1
1.833e+0, -7.496e-1
1.834e+0, -7.507e-1
1.835e+0, -7.517e-1
1.836e+0, -7.528e-1
1.837e+0, -7.539e-1
1.838e+0, -7.549e-1
1.839e+0, -7.560e-1
1.840e+0, -7.571e-1
1.841e+0, -7.581e-1
1.842e+0, -7.591e-1
1.843e+0, -7.602e-1
1.844e+0, -7.612e-1
1.845e+0, -7.623e-1
1.846e+0, -7.633e-1
1.847e+0, -7.643e-1
1.848e+0, -7.654e-1
1.849e+0, -7.663e-1
1.850e+0, -7.674e-1
1.851e+0, -7.684e-1
1.852e+0, -7.694e-1
1.853e+0, -7.704e-1
1.854e+0, -7.714e-1
1.855e+0, -7.724e-1
1.856e+0, -7.734e-1
1.857e+0, -7.744e-1
1.858e+0, -7.753e-1
1.859e+0, -7.763e-1
1.860e+0, -7.773e-1
1.861e+0, -7.783e-1
1.862e+0, -7.793e-1
1.863e+0, -7.802e-1
1.864e+0, -7.812e-1
1.865e+0, -7.822e-1
1.866e+0, -7.831e-1
1.867e+0, -7.841e-1
1.868e+0, -7.850e-1
1.869e+0, -7.860e-1
1.870e+0, -7.869e-1
1.871e+0, -7.879e-1
1.872e+0, -7.888e-1
1.873e+0, -7.897e-1
1.874e+0, -7.906e-1
1.875e+0, -7.916e-1
1.876e+0, -7.925e-1
1.877e+0, -7.935e-1
1.878e+0, -7.943e-1
1.879e+0, -7.952e-1
1.880e+0, -7.962e-1
1.881e+0, -7.971e-1
1.882e+0, -7.980e-1
1.883e+0, -7.989e-1
1.884e+0, -7.998e-1
1.885e+0, -8.007e-1
1.886e+0, -8.016e-1
1.887e+0, -8.025e-1
1.888e+0, -8.034e-1
1.889e+0, -8.043e-1
1.890e+0, -8.052e-1
1.891e+0, -8.060e-1
1.892e+0, -8.069e-1
1.893e+0, -8.078e-1
1.894e+0, -8.087e-1
1.895e+0, -8.096e-1
1.896e+0, -8.105e-1
1.897e+0, -8.113e-1
1.898e+0, -8.122e-1
1.899e+0, -8.131e-1
1.900e+0, -8.139e-1
1.901e+0, -8.148e-1
1.902e+0, -8.157e-1
1.903e+0, -8.165e-1
1.904e+0, -8.174e-1
1.905e+0, -8.182e-1
1.906e+0, -8.191e-1
1.907e+0, -8.200e-1
1.908e+0, -8.208e-1
1.909e+0, -8.217e-1
1.910e+0, -8.225e-1
1.911e+0, -8.234e-1
1.912e+0, -8.242e-1
1.913e+0, -8.251e-1
1.914e+0, -8.259e-1
1.915e+0, -8.267e-1
1.916e+0, -8.275e-1
1.917e+0, -8.284e-1
1.918e+0, -8.292e-1
1.919e+0, -8.300e-1
1.920e+0, -8.308e-1
1.921e+0, -8.316e-1
1.922e+0, -8.325e-1
1.923e+0, -8.333e-1
1.924e+0, -8.341e-1
1.925e+0, -8.350e-1
1.926e+0, -8.357e-1
1.927e+0, -8.365e-1
1.928e+0, -8.373e-1
1.929e+0, -8.382e-1
1.930e+0, -8.390e-1
1.931e+0, -8.398e-1
1.932e+0, -8.406e-1
1.933e+0, -8.414e-1
1.934e+0, -8.422e-1
1.935e+0, -8.430e-1
1.936e+0, -8.438e-1
1.937e+0, -8.446e-1
1.938e+0, -8.454e-1
1.939e+0, -8.462e-1
1.940e+0, -8.470e-1
1.941e+0, -8.478e-1
1.942e+0, -8.486e-1
1.943e+0, -8.494e-1
1.944e+0, -8.502e-1
1.945e+0, -8.509e-1
1.946e+0, -8.517e-1
1.947e+0, -8.525e-1
1.948e+0, -8.533e-1
1.949e+0, -8.540e-1
1.950e+0, -8.548e-1
1.951e+0, -8.556e-1
1.952e+0, -8.563e-1
1.953e+0, -8.571e-1
1.954e+0, -8.579e-1
1.955e+0, -8.587e-1
1.956e+0, -8.595e-1
1.957e+0, -8.602e-1
1.958e+0, -8.610e-1
1.959e+0, -8.618e-1
1.960e+0, -8.625e-1
1.961e+0, -8.633e-1
1.962e+0, -8.640e-1
1.963e+0, -8.648e-1
1.964e+0, -8.656e-1
1.965e+0, -8.663e-1
1.966e+0, -8.671e-1
1.967e+0, -8.678e-1
1.968e+0, -8.685e-1
1.969e+0, -8.693e-1
1.970e+0, -8.701e-1
1.971e+0, -8.708e-1
1.972e+0, -8.715e-1
1.973e+0, -8.723e-1
1.974e+0, -8.730e-1
1.975e+0, -8.738e-1
1.976e+0, -8.745e-1
1.977e+0, -8.752e-1
1.978e+0, -8.760e-1
1.979e+0, -8.767e-1
1.980e+0, -8.775e-1
1.981e+0, -8.782e-1
1.982e+0, -8.790e-1
1.983e+0, -8.797e-1
1.984e+0, -8.804e-1
1.985e+0, -8.812e-1
1.986e+0, -8.819e-1
1.987e+0, -8.826e-1
1.988e+0, -8.834e-1
1.989e+0, -8.841e-1
1.990e+0, -8.848e-1
1.991e+0, -8.855e-1
1.992e+0, -8.863e-1
1.993e+0, -8.870e-1
1.994e+0, -8.877e-1
1.995e+0, -8.885e-1
1.996e+0, -8.892e-1
1.997e+0, -8.899e-1
1.998e+0, -8.906e-1
1.999e+0, -8.913e-1
2.000e+0, -8.921e-1
2.001e+0, -8.927e-1
2.002e+0, -8.935e-1
2.003e+0, -8.942e-1
2.004e+0, -8.949e-1
2.005e+0, -8.956e-1
2.006e+0, -8.963e-1
2.007e+0, -8.971e-1
2.008e+0, -8.978e-1
2.009e+0, -8.985e-1
2.010e+0, -8.992e-1
2.011e+0, -8.999e-1
2.012e+0, -9.006e-1
2.013e+0, -9.013e-1
2.014e+0, -9.021e-1
2.015e+0, -9.027e-1
2.016e+0, -9.034e-1
2.017e+0, -9.041e-1
2.018e+0, -9.048e-1
2.019e+0, -9.055e-1
2.020e+0, -9.062e-1
2.021e+0, -9.069e-1
2.022e+0, -9.076e-1
2.023e+0, -9.083e-1
2.024e+0, -9.090e-1
2.025e+0, -9.097e-1
2.026e+0, -9.104e-1
2.027e+0, -9.111e-1
2.028e+0, -9.118e-1
2.029e+0, -9.124e-1
2.030e+0, -9.132e-1
2.031e+0, -9.139e-1
2.032e+0, -9.145e-1
2.033e+0, -9.152e-1
2.034e+0, -9.159e-1
2.035e+0, -9.166e-1
2.036e+0, -9.173e-1
2.037e+0, -9.180e-1
2.038e+0, -9.187e-1
2.039e+0, -9.193e-1
2.040e+0, -9.200e-1
2.041e+0, -9.207e-1
2.042e+0, -9.214e-1
2.043e+0, -9.221e-1
2.044e+0, -9.227e-1
2.045e+0, -9.234e-1
2.046e+0, -9.241e-1
2.047e+0, -9.248e-1
2.048e+0, -9.255e-1
2.049e+0, -9.261e-1
2.050e+0, -9.269e-1
2.051e+0, -9.275e-1
2.052e+0, -9.282e-1
2.053e+0, -9.289e-1
2.054e+0, -9.295e-1
2.055e+0, -9.302e-1
2.056e+0, -9.309e-1
2.057e+0, -9.316e-1
2.058e+0, -9.322e-1
2.059e+0, -9.329e-1
2.060e+0, -9.335e-1
2.061e+0, -9.342e-1
2.062e+0, -9.349e-1
2.063e+0, -9.356e-1
2.064e+0, -9.362e-1
2.065e+0, -9.369e-1
2.066e+0, -9.376e-1
2.067e+0, -9.383e-1
2.068e+0, -9.389e-1
2.069e+0, -9.396e-1
2.070e+0, -9.402e-1
2.071e+0, -9.409e-1
2.072e+0, -9.415e-1
2.073e+0, -9.422e-1
2.074e+0, -9.429e-1
2.075e+0, -9.436e-1
2.076e+0, -9.442e-1
2.077e+0, -9.448e-1
2.078e+0, -9.455e-1
2.079e+0, -9.462e-1
2.080e+0, -9.468e-1
2.081e+0, -9.475e-1
2.082e+0, -9.481e-1
2.083e+0, -9.487e-1
2.084e+0, -9.494e-1
2.085e+0, -9.501e-1
2.086e+0, -9.507e-1
2.087e+0, -9.514e-1
2.088e+0, -9.520e-1
2.089e+0, -9.527e-1
2.090e+0, -9.533e-1
2.091e+0, -9.540e-1
2.092e+0, -9.546e-1
2.093e+0, -9.553e-1
2.094e+0, -9.559e-1
2.095e+0, -9.566e-1
2.096e+0, -9.572e-1
2.097e+0, -9.579e-1
2.098e+0, -9.586e-1
2.099e+0, -9.592e-1
2.100e+0, -9.598e-1
2.101e+0, -9.604e-1
2.102e+0, -9.611e-1
2.103e+0, -9.618e-1
2.104e+0, -9.624e-1
2.105e+0, -9.631e-1
2.106e+0, -9.637e-1
2.107e+0, -9.643e-1
2.108e+0, -9.650e-1
2.109e+0, -9.656e-1
2.110e+0, -9.663e-1
2.111e+0, -9.669e-1
2.112e+0, -9.675e-1
2.113e+0, -9.682e-1
2.114e+0, -9.688e-1
2.115e+0, -9.694e-1
2.116e+0, -9.701e-1
2.117e+0, -9.707e-1
2.118e+0, -9.713e-1
2.119e+0, -9.720e-1
2.120e+0, -9.726e-1
2.121e+0, -9.733e-1
2.122e+0, -9.739e-1
2.123e+0, -9.745e-1
2.124e+0, -9.752e-1
2.125e+0, -9.758e-1
2.126e+0, -9.764e-1
2.127e+0, -9.771e-1
2.128e+0, -9.777e-1
2.129e+0, -9.783e-1
2.130e+0, -9.789e-1
2.131e+0, -9.796e-1
2.132e+0, -9.802e-1
2.133e+0, -9.808e-1
2.134e+0, -9.815e-1
2.135e+0, -9.821e-1
2.136e+0, -9.827e-1
2.137e+0, -9.833e-1
2.138e+0, -9.839e-1
2.139e+0, -9.846e-1
2.140e+0, -9.852e-1
2.141e+0, -9.858e-1
2.142e+0, -9.864e-1
2.143e+0, -9.870e-1
2.144e+0, -9.877e-1
2.145e+0, -9.883e-1
2.146e+0, -9.890e-1
2.147e+0, -9.896e-1
2.148e+0, -9.902e-1
2.149e+0, -9.908e-1
2.150e+0, -9.914e-1
2.151e+0, -9.920e-1
2.152e+0, -9.926e-1
2.153e+0, -9.932e-1
2.154e+0, -9.939e-1
2.155e+0, -9.945e-1
2.156e+0, -9.951e-1
2.157e+0, -9.957e-1
2.158e+0, -9.964e-1
2.159e+0, -9.969e-1
2.160e+0, -9.976e-1
2.161e+0, -9.982e-1
2.162e+0, -9.988e-1
2.163e+0, -9.994e-1
2.164e+0, -1.000e+0
