Jan. 21, 2018   13:08:45
Chronopotentiometry
File: c:\users\lingd\desktop\Data Source:  Experiment
Instrument Model:  CHI660E
Header: 
Note: 

Cathodic Current (A) = 0.01468
Anodic Current (A) = 0.01468
Init P/N = N
Data Storage Interval (s) = 0.1
High E Limit (V) = 0.1
Low E Limit (V) = -0.9
Cathodic Time (s) = 10
Anodic Time (s) = 10
Current Switching Polarity = Potential
Segment = 5

Time/sec, Potential/V

1.000e-1, -7.567e-1
2.000e-1, -7.703e-1
3.000e-1, -7.814e-1
4.000e-1, -7.911e-1
5.000e-1, -7.997e-1
6.000e-1, -8.075e-1
7.000e-1, -8.147e-1
8.000e-1, -8.215e-1
9.000e-1, -8.279e-1
1.000e+0, -8.339e-1
1.100e+0, -8.397e-1
1.200e+0, -8.452e-1
1.300e+0, -8.506e-1
1.400e+0, -8.557e-1
1.500e+0, -8.606e-1
1.600e+0, -8.655e-1
1.700e+0, -8.701e-1
1.800e+0, -8.746e-1
1.900e+0, -8.790e-1
2.000e+0, -8.833e-1
2.100e+0, -8.875e-1
2.200e+0, -8.916e-1
2.300e+0, -8.956e-1
2.400e+0, -8.995e-1
2.500e+0, -8.081e-1
2.600e+0, -7.682e-1
2.700e+0, -7.439e-1
2.800e+0, -7.255e-1
2.900e+0, -7.102e-1
3.000e+0, -6.968e-1
3.100e+0, -6.849e-1
3.200e+0, -6.741e-1
3.300e+0, -6.642e-1
3.400e+0, -6.551e-1
3.500e+0, -6.466e-1
3.600e+0, -6.386e-1
3.700e+0, -6.310e-1
3.800e+0, -6.237e-1
3.900e+0, -6.169e-1
4.000e+0, -6.104e-1
4.100e+0, -6.044e-1
4.200e+0, -5.985e-1
4.300e+0, -5.928e-1
4.400e+0, -5.871e-1
4.500e+0, -5.818e-1
4.600e+0, -5.767e-1
4.700e+0, -5.719e-1
4.800e+0, -5.671e-1
4.900e+0, -5.624e-1
5.000e+0, -5.579e-1
5.100e+0, -5.534e-1
5.200e+0, -5.490e-1
5.300e+0, -5.447e-1
5.400e+0, -5.405e-1
5.500e+0, -5.364e-1
5.600e+0, -5.324e-1
5.700e+0, -5.284e-1
5.800e+0, -5.245e-1
5.900e+0, -5.207e-1
6.000e+0, -5.169e-1
6.100e+0, -5.132e-1
6.200e+0, -5.095e-1
6.300e+0, -5.059e-1
6.400e+0, -5.024e-1
6.500e+0, -4.988e-1
6.600e+0, -4.954e-1
6.700e+0, -4.919e-1
6.800e+0, -4.886e-1
6.900e+0, -4.852e-1
7.000e+0, -4.819e-1
7.100e+0, -4.786e-1
7.200e+0, -4.754e-1
7.300e+0, -4.722e-1
7.400e+0, -4.690e-1
7.500e+0, -4.659e-1
7.600e+0, -4.627e-1
7.700e+0, -4.597e-1
7.800e+0, -4.566e-1
7.900e+0, -4.535e-1
8.000e+0, -4.505e-1
8.100e+0, -4.475e-1
8.200e+0, -4.446e-1
8.300e+0, -4.416e-1
8.400e+0, -4.387e-1
8.500e+0, -4.358e-1
8.600e+0, -4.329e-1
8.700e+0, -4.301e-1
8.800e+0, -4.272e-1
8.900e+0, -4.244e-1
9.000e+0, -4.216e-1
9.100e+0, -4.188e-1
9.200e+0, -4.160e-1
9.300e+0, -4.133e-1
9.400e+0, -4.106e-1
9.500e+0, -4.079e-1
9.600e+0, -4.052e-1
9.700e+0, -4.025e-1
9.800e+0, -3.998e-1
9.900e+0, -3.971e-1
1.000e+1, -3.945e-1
1.010e+1, -3.918e-1
1.020e+1, -3.892e-1
1.030e+1, -3.866e-1
1.040e+1, -3.840e-1
1.050e+1, -3.814e-1
1.060e+1, -3.788e-1
1.070e+1, -3.762e-1
1.080e+1, -3.737e-1
1.090e+1, -3.711e-1
1.100e+1, -3.685e-1
1.110e+1, -3.660e-1
1.120e+1, -3.635e-1
1.130e+1, -3.609e-1
1.140e+1, -3.584e-1
1.150e+1, -3.559e-1
1.160e+1, -3.533e-1
1.170e+1, -3.508e-1
1.180e+1, -3.484e-1
1.190e+1, -3.459e-1
1.200e+1, -3.434e-1
1.210e+1, -3.409e-1
1.220e+1, -3.384e-1
1.230e+1, -3.359e-1
1.240e+1, -3.335e-1
1.250e+1, -3.310e-1
1.260e+1, -3.285e-1
1.270e+1, -3.261e-1
1.280e+1, -3.236e-1
1.290e+1, -3.212e-1
1.300e+1, -3.187e-1
1.310e+1, -3.163e-1
1.320e+1, -3.139e-1
1.330e+1, -3.114e-1
1.340e+1, -3.090e-1
1.350e+1, -3.065e-1
1.360e+1, -3.041e-1
1.370e+1, -3.017e-1
1.380e+1, -2.992e-1
1.390e+1, -2.968e-1
1.400e+1, -2.944e-1
1.410e+1, -2.919e-1
1.420e+1, -2.894e-1
1.430e+1, -2.870e-1
1.440e+1, -2.845e-1
1.450e+1, -2.820e-1
1.460e+1, -2.795e-1
1.470e+1, -2.771e-1
1.480e+1, -2.746e-1
1.490e+1, -2.721e-1
1.500e+1, -2.696e-1
1.510e+1, -2.671e-1
1.520e+1, -2.646e-1
1.530e+1, -2.621e-1
1.540e+1, -2.596e-1
1.550e+1, -2.571e-1
1.560e+1, -2.546e-1
1.570e+1, -2.522e-1
1.580e+1, -2.497e-1
1.590e+1, -2.472e-1
1.600e+1, -2.447e-1
1.610e+1, -2.422e-1
1.620e+1, -2.397e-1
1.630e+1, -2.372e-1
1.640e+1, -2.347e-1
1.650e+1, -2.322e-1
1.660e+1, -2.297e-1
1.670e+1, -2.272e-1
1.680e+1, -2.247e-1
1.690e+1, -2.222e-1
1.700e+1, -2.197e-1
1.710e+1, -2.172e-1
1.720e+1, -2.147e-1
1.730e+1, -2.122e-1
1.740e+1, -2.097e-1
1.750e+1, -2.072e-1
1.760e+1, -2.047e-1
1.770e+1, -2.022e-1
1.780e+1, -1.997e-1
1.790e+1, -1.972e-1
1.800e+1, -1.947e-1
1.810e+1, -1.923e-1
1.820e+1, -1.898e-1
1.830e+1, -1.873e-1
1.840e+1, -1.848e-1
1.850e+1, -1.823e-1
1.860e+1, -1.798e-1
1.870e+1, -1.773e-1
1.880e+1, -1.748e-1
1.890e+1, -1.723e-1
1.900e+1, -1.698e-1
1.910e+1, -1.673e-1
1.920e+1, -1.648e-1
1.930e+1, -1.623e-1
1.940e+1, -1.598e-1
1.950e+1, -1.574e-1
1.960e+1, -1.549e-1
1.970e+1, -1.524e-1
1.980e+1, -1.499e-1
1.990e+1, -1.474e-1
2.000e+1, -1.449e-1
2.010e+1, -1.424e-1
2.020e+1, -1.399e-1
2.030e+1, -1.375e-1
2.040e+1, -1.350e-1
2.050e+1, -1.325e-1
2.060e+1, -1.300e-1
2.070e+1, -1.275e-1
2.080e+1, -1.250e-1
2.090e+1, -1.225e-1
2.100e+1, -1.200e-1
2.110e+1, -1.175e-1
2.120e+1, -1.151e-1
2.130e+1, -1.125e-1
2.140e+1, -1.101e-1
2.150e+1, -1.076e-1
2.160e+1, -1.050e-1
2.170e+1, -1.025e-1
2.180e+1, -1.000e-1
2.190e+1, -9.753e-2
2.200e+1, -9.503e-2
2.210e+1, -9.251e-2
2.220e+1, -9.000e-2
2.230e+1, -8.749e-2
2.240e+1, -8.497e-2
2.250e+1, -8.247e-2
2.260e+1, -7.996e-2
2.270e+1, -7.742e-2
2.280e+1, -7.489e-2
2.290e+1, -7.237e-2
2.300e+1, -6.983e-2
2.310e+1, -6.731e-2
2.320e+1, -6.477e-2
2.330e+1, -6.224e-2
2.340e+1, -5.971e-2
2.350e+1, -5.717e-2
2.360e+1, -5.463e-2
2.370e+1, -5.211e-2
2.380e+1, -4.959e-2
2.390e+1, -4.706e-2
2.400e+1, -4.454e-2
2.410e+1, -4.202e-2
2.420e+1, -3.952e-2
2.430e+1, -3.704e-2
2.440e+1, -3.457e-2
2.450e+1, -3.210e-2
2.460e+1, -2.963e-2
2.470e+1, -2.716e-2
2.480e+1, -2.469e-2
2.490e+1, -2.221e-2
2.500e+1, -1.975e-2
2.510e+1, -1.730e-2
2.520e+1, -1.482e-2
2.530e+1, -1.237e-2
2.540e+1, -9.903e-3
2.550e+1, -7.439e-3
2.560e+1, -4.990e-3
2.570e+1, -2.549e-3
2.580e+1, -9.368e-5
2.590e+1, 2.357e-3
2.600e+1, 4.815e-3
2.610e+1, 7.274e-3
2.620e+1, 9.739e-3
2.630e+1, 1.219e-2
2.640e+1, 1.464e-2
2.650e+1, 1.711e-2
2.660e+1, 1.957e-2
2.670e+1, 2.205e-2
2.680e+1, 2.451e-2
2.690e+1, 2.698e-2
2.700e+1, 2.944e-2
2.710e+1, 3.192e-2
2.720e+1, 3.441e-2
2.730e+1, 3.690e-2
2.740e+1, 3.940e-2
2.750e+1, 4.191e-2
2.760e+1, 4.440e-2
2.770e+1, 4.691e-2
2.780e+1, 4.945e-2
2.790e+1, 5.197e-2
2.800e+1, 5.450e-2
2.810e+1, 5.703e-2
2.820e+1, 5.955e-2
2.830e+1, 6.206e-2
2.840e+1, 6.458e-2
2.850e+1, 6.709e-2
2.860e+1, 6.960e-2
2.870e+1, 7.210e-2
2.880e+1, 7.457e-2
2.890e+1, 7.702e-2
2.900e+1, 7.948e-2
2.910e+1, 8.193e-2
2.920e+1, 8.437e-2
2.930e+1, 8.680e-2
2.940e+1, 8.922e-2
2.950e+1, 9.161e-2
2.960e+1, 9.400e-2
2.970e+1, 9.638e-2
2.980e+1, 9.875e-2
2.990e+1, -9.931e-3
3.000e+1, -7.244e-2
3.010e+1, -1.103e-1
3.020e+1, -1.388e-1
3.030e+1, -1.617e-1
3.040e+1, -1.813e-1
3.050e+1, -1.982e-1
3.060e+1, -2.137e-1
3.070e+1, -2.273e-1
3.080e+1, -2.394e-1
3.090e+1, -2.507e-1
3.100e+1, -2.613e-1
3.110e+1, -2.712e-1
3.120e+1, -2.806e-1
3.130e+1, -2.894e-1
3.140e+1, -2.978e-1
3.150e+1, -3.058e-1
3.160e+1, -3.135e-1
3.170e+1, -3.208e-1
3.180e+1, -3.277e-1
3.190e+1, -3.343e-1
3.200e+1, -3.408e-1
3.210e+1, -3.471e-1
3.220e+1, -3.530e-1
3.230e+1, -3.588e-1
3.240e+1, -3.645e-1
3.250e+1, -3.700e-1
3.260e+1, -3.754e-1
3.270e+1, -3.806e-1
3.280e+1, -3.857e-1
3.290e+1, -3.907e-1
3.300e+1, -3.956e-1
3.310e+1, -4.004e-1
3.320e+1, -4.051e-1
3.330e+1, -4.097e-1
3.340e+1, -4.141e-1
3.350e+1, -4.186e-1
3.360e+1, -4.229e-1
3.370e+1, -4.272e-1
3.380e+1, -4.313e-1
3.390e+1, -4.354e-1
3.400e+1, -4.395e-1
3.410e+1, -4.435e-1
3.420e+1, -4.474e-1
3.430e+1, -4.513e-1
3.440e+1, -4.551e-1
3.450e+1, -4.588e-1
3.460e+1, -4.625e-1
3.470e+1, -4.662e-1
3.480e+1, -4.698e-1
3.490e+1, -4.734e-1
3.500e+1, -4.769e-1
3.510e+1, -4.804e-1
3.520e+1, -4.838e-1
3.530e+1, -4.873e-1
3.540e+1, -4.906e-1
3.550e+1, -4.939e-1
3.560e+1, -4.972e-1
3.570e+1, -5.005e-1
3.580e+1, -5.037e-1
3.590e+1, -5.069e-1
3.600e+1, -5.101e-1
3.610e+1, -5.133e-1
3.620e+1, -5.164e-1
3.630e+1, -5.195e-1
3.640e+1, -5.225e-1
3.650e+1, -5.256e-1
3.660e+1, -5.286e-1
3.670e+1, -5.316e-1
3.680e+1, -5.345e-1
3.690e+1, -5.375e-1
3.700e+1, -5.404e-1
3.710e+1, -5.433e-1
3.720e+1, -5.462e-1
3.730e+1, -5.491e-1
3.740e+1, -5.519e-1
3.750e+1, -5.547e-1
3.760e+1, -5.575e-1
3.770e+1, -5.603e-1
3.780e+1, -5.631e-1
3.790e+1, -5.658e-1
3.800e+1, -5.686e-1
3.810e+1, -5.713e-1
3.820e+1, -5.740e-1
3.830e+1, -5.767e-1
3.840e+1, -5.794e-1
3.850e+1, -5.820e-1
3.860e+1, -5.847e-1
3.870e+1, -5.873e-1
3.880e+1, -5.899e-1
3.890e+1, -5.925e-1
3.900e+1, -5.951e-1
3.910e+1, -5.977e-1
3.920e+1, -6.003e-1
3.930e+1, -6.029e-1
3.940e+1, -6.054e-1
3.950e+1, -6.080e-1
3.960e+1, -6.105e-1
3.970e+1, -6.130e-1
3.980e+1, -6.155e-1
3.990e+1, -6.180e-1
4.000e+1, -6.205e-1
4.010e+1, -6.230e-1
4.020e+1, -6.254e-1
4.030e+1, -6.279e-1
4.040e+1, -6.304e-1
4.050e+1, -6.328e-1
4.060e+1, -6.352e-1
4.070e+1, -6.376e-1
4.080e+1, -6.401e-1
4.090e+1, -6.425e-1
4.100e+1, -6.449e-1
4.110e+1, -6.472e-1
4.120e+1, -6.496e-1
4.130e+1, -6.520e-1
4.140e+1, -6.543e-1
4.150e+1, -6.567e-1
4.160e+1, -6.590e-1
4.170e+1, -6.613e-1
4.180e+1, -6.636e-1
4.190e+1, -6.659e-1
4.200e+1, -6.682e-1
4.210e+1, -6.705e-1
4.220e+1, -6.728e-1
4.230e+1, -6.751e-1
4.240e+1, -6.773e-1
4.250e+1, -6.796e-1
4.260e+1, -6.818e-1
4.270e+1, -6.840e-1
4.280e+1, -6.862e-1
4.290e+1, -6.884e-1
4.300e+1, -6.906e-1
4.310e+1, -6.929e-1
4.320e+1, -6.950e-1
4.330e+1, -6.972e-1
4.340e+1, -6.994e-1
4.350e+1, -7.016e-1
4.360e+1, -7.037e-1
4.370e+1, -7.059e-1
4.380e+1, -7.081e-1
4.390e+1, -7.102e-1
4.400e+1, -7.124e-1
4.410e+1, -7.145e-1
4.420e+1, -7.167e-1
4.430e+1, -7.188e-1
4.440e+1, -7.210e-1
4.450e+1, -7.232e-1
4.460e+1, -7.253e-1
4.470e+1, -7.275e-1
4.480e+1, -7.296e-1
4.490e+1, -7.317e-1
4.500e+1, -7.339e-1
4.510e+1, -7.361e-1
4.520e+1, -7.382e-1
4.530e+1, -7.404e-1
4.540e+1, -7.425e-1
4.550e+1, -7.446e-1
4.560e+1, -7.468e-1
4.570e+1, -7.490e-1
4.580e+1, -7.511e-1
4.590e+1, -7.533e-1
4.600e+1, -7.554e-1
4.610e+1, -7.576e-1
4.620e+1, -7.597e-1
4.630e+1, -7.619e-1
4.640e+1, -7.641e-1
4.650e+1, -7.662e-1
4.660e+1, -7.684e-1
4.670e+1, -7.705e-1
4.680e+1, -7.727e-1
4.690e+1, -7.749e-1
4.700e+1, -7.770e-1
4.710e+1, -7.792e-1
4.720e+1, -7.813e-1
4.730e+1, -7.835e-1
4.740e+1, -7.857e-1
4.750e+1, -7.878e-1
4.760e+1, -7.900e-1
4.770e+1, -7.922e-1
4.780e+1, -7.943e-1
4.790e+1, -7.965e-1
4.800e+1, -7.986e-1
4.810e+1, -8.008e-1
4.820e+1, -8.030e-1
4.830e+1, -8.051e-1
4.840e+1, -8.072e-1
4.850e+1, -8.094e-1
4.860e+1, -8.115e-1
4.870e+1, -8.137e-1
4.880e+1, -8.158e-1
4.890e+1, -8.180e-1
4.900e+1, -8.201e-1
4.910e+1, -8.223e-1
4.920e+1, -8.244e-1
4.930e+1, -8.265e-1
4.940e+1, -8.287e-1
4.950e+1, -8.308e-1
4.960e+1, -8.329e-1
4.970e+1, -8.350e-1
4.980e+1, -8.372e-1
4.990e+1, -8.393e-1
5.000e+1, -8.414e-1
5.010e+1, -8.435e-1
5.020e+1, -8.456e-1
5.030e+1, -8.477e-1
5.040e+1, -8.498e-1
5.050e+1, -8.519e-1
5.060e+1, -8.540e-1
5.070e+1, -8.561e-1
5.080e+1, -8.582e-1
5.090e+1, -8.603e-1
5.100e+1, -8.624e-1
5.110e+1, -8.644e-1
5.120e+1, -8.665e-1
5.130e+1, -8.685e-1
5.140e+1, -8.706e-1
5.150e+1, -8.726e-1
5.160e+1, -8.747e-1
5.170e+1, -8.767e-1
5.180e+1, -8.788e-1
5.190e+1, -8.808e-1
5.200e+1, -8.829e-1
5.210e+1, -8.849e-1
5.220e+1, -8.870e-1
5.230e+1, -8.890e-1
5.240e+1, -8.910e-1
5.250e+1, -8.930e-1
5.260e+1, -8.950e-1
5.270e+1, -8.970e-1
5.280e+1, -8.991e-1
5.290e+1, -8.026e-1
5.300e+1, -7.611e-1
5.310e+1, -7.349e-1
5.320e+1, -7.156e-1
5.330e+1, -6.992e-1
5.340e+1, -6.849e-1
5.350e+1, -6.722e-1
5.360e+1, -6.606e-1
5.370e+1, -6.500e-1
5.380e+1, -6.401e-1
5.390e+1, -6.308e-1
5.400e+1, -6.221e-1
5.410e+1, -6.139e-1
5.420e+1, -6.060e-1
5.430e+1, -5.984e-1
5.440e+1, -5.912e-1
5.450e+1, -5.844e-1
5.460e+1, -5.779e-1
5.470e+1, -5.717e-1
5.480e+1, -5.656e-1
5.490e+1, -5.596e-1
5.500e+1, -5.537e-1
5.510e+1, -5.482e-1
5.520e+1, -5.429e-1
5.530e+1, -5.378e-1
5.540e+1, -5.327e-1
5.550e+1, -5.278e-1
5.560e+1, -5.229e-1
5.570e+1, -5.181e-1
5.580e+1, -5.134e-1
5.590e+1, -5.088e-1
5.600e+1, -5.043e-1
5.610e+1, -4.998e-1
5.620e+1, -4.955e-1
5.630e+1, -4.912e-1
5.640e+1, -4.869e-1
5.650e+1, -4.828e-1
5.660e+1, -4.787e-1
5.670e+1, -4.746e-1
5.680e+1, -4.706e-1
5.690e+1, -4.667e-1
5.700e+1, -4.628e-1
5.710e+1, -4.590e-1
5.720e+1, -4.552e-1
5.730e+1, -4.514e-1
5.740e+1, -4.477e-1
5.750e+1, -4.441e-1
5.760e+1, -4.404e-1
5.770e+1, -4.369e-1
5.780e+1, -4.333e-1
5.790e+1, -4.298e-1
5.800e+1, -4.263e-1
5.810e+1, -4.228e-1
5.820e+1, -4.194e-1
5.830e+1, -4.160e-1
5.840e+1, -4.127e-1
5.850e+1, -4.094e-1
5.860e+1, -4.061e-1
5.870e+1, -4.028e-1
5.880e+1, -3.996e-1
5.890e+1, -3.963e-1
5.900e+1, -3.931e-1
5.910e+1, -3.899e-1
5.920e+1, -3.868e-1
5.930e+1, -3.836e-1
5.940e+1, -3.805e-1
5.950e+1, -3.774e-1
5.960e+1, -3.743e-1
5.970e+1, -3.713e-1
5.980e+1, -3.682e-1
5.990e+1, -3.652e-1
6.000e+1, -3.621e-1
6.010e+1, -3.591e-1
6.020e+1, -3.561e-1
6.030e+1, -3.531e-1
6.040e+1, -3.501e-1
6.050e+1, -3.472e-1
6.060e+1, -3.442e-1
6.070e+1, -3.413e-1
6.080e+1, -3.383e-1
6.090e+1, -3.354e-1
6.100e+1, -3.325e-1
6.110e+1, -3.295e-1
6.120e+1, -3.266e-1
6.130e+1, -3.237e-1
6.140e+1, -3.208e-1
6.150e+1, -3.179e-1
6.160e+1, -3.150e-1
6.170e+1, -3.121e-1
6.180e+1, -3.092e-1
6.190e+1, -3.063e-1
6.200e+1, -3.034e-1
6.210e+1, -3.005e-1
6.220e+1, -2.976e-1
6.230e+1, -2.947e-1
6.240e+1, -2.918e-1
6.250e+1, -2.889e-1
6.260e+1, -2.860e-1
6.270e+1, -2.831e-1
6.280e+1, -2.802e-1
6.290e+1, -2.773e-1
6.300e+1, -2.745e-1
6.310e+1, -2.716e-1
6.320e+1, -2.687e-1
6.330e+1, -2.658e-1
6.340e+1, -2.630e-1
6.350e+1, -2.601e-1
6.360e+1, -2.572e-1
6.370e+1, -2.544e-1
6.380e+1, -2.515e-1
6.390e+1, -2.487e-1
6.400e+1, -2.458e-1
6.410e+1, -2.429e-1
6.420e+1, -2.401e-1
6.430e+1, -2.372e-1
6.440e+1, -2.344e-1
6.450e+1, -2.315e-1
6.460e+1, -2.287e-1
6.470e+1, -2.258e-1
6.480e+1, -2.229e-1
6.490e+1, -2.201e-1
6.500e+1, -2.172e-1
6.510e+1, -2.144e-1
6.520e+1, -2.115e-1
6.530e+1, -2.086e-1
6.540e+1, -2.058e-1
6.550e+1, -2.029e-1
6.560e+1, -2.001e-1
6.570e+1, -1.972e-1
6.580e+1, -1.943e-1
6.590e+1, -1.915e-1
6.600e+1, -1.886e-1
6.610e+1, -1.858e-1
6.620e+1, -1.829e-1
6.630e+1, -1.800e-1
6.640e+1, -1.772e-1
6.650e+1, -1.743e-1
6.660e+1, -1.715e-1
6.670e+1, -1.686e-1
6.680e+1, -1.657e-1
6.690e+1, -1.629e-1
6.700e+1, -1.600e-1
6.710e+1, -1.572e-1
6.720e+1, -1.543e-1
6.730e+1, -1.514e-1
6.740e+1, -1.486e-1
6.750e+1, -1.457e-1
6.760e+1, -1.428e-1
6.770e+1, -1.400e-1
6.780e+1, -1.371e-1
6.790e+1, -1.342e-1
6.800e+1, -1.314e-1
6.810e+1, -1.285e-1
6.820e+1, -1.257e-1
6.830e+1, -1.228e-1
6.840e+1, -1.200e-1
6.850e+1, -1.171e-1
6.860e+1, -1.143e-1
6.870e+1, -1.114e-1
6.880e+1, -1.086e-1
6.890e+1, -1.058e-1
6.900e+1, -1.030e-1
6.910e+1, -1.002e-1
6.920e+1, -9.743e-2
6.930e+1, -9.467e-2
6.940e+1, -9.191e-2
6.950e+1, -8.916e-2
6.960e+1, -8.640e-2
6.970e+1, -8.365e-2
6.980e+1, -8.091e-2
6.990e+1, -7.815e-2
7.000e+1, -7.540e-2
7.010e+1, -7.264e-2
7.020e+1, -6.987e-2
7.030e+1, -6.712e-2
7.040e+1, -6.436e-2
7.050e+1, -6.159e-2
7.060e+1, -5.882e-2
7.070e+1, -5.606e-2
7.080e+1, -5.329e-2
7.090e+1, -5.054e-2
7.100e+1, -4.777e-2
7.110e+1, -4.499e-2
7.120e+1, -4.221e-2
7.130e+1, -3.943e-2
7.140e+1, -3.664e-2
7.150e+1, -3.385e-2
7.160e+1, -3.104e-2
7.170e+1, -2.824e-2
7.180e+1, -2.543e-2
7.190e+1, -2.262e-2
7.200e+1, -1.982e-2
7.210e+1, -1.700e-2
7.220e+1, -1.416e-2
7.230e+1, -1.132e-2
7.240e+1, -8.478e-3
7.250e+1, -5.628e-3
7.260e+1, -2.781e-3
7.270e+1, 8.472e-5
7.280e+1, 2.966e-3
7.290e+1, 5.849e-3
7.300e+1, 8.732e-3
7.310e+1, 1.162e-2
7.320e+1, 1.450e-2
7.330e+1, 1.740e-2
7.340e+1, 2.029e-2
7.350e+1, 2.317e-2
7.360e+1, 2.605e-2
7.370e+1, 2.890e-2
7.380e+1, 3.176e-2
7.390e+1, 3.461e-2
7.400e+1, 3.745e-2
7.410e+1, 4.027e-2
7.420e+1, 4.307e-2
7.430e+1, 4.586e-2
7.440e+1, 4.866e-2
7.450e+1, 5.143e-2
7.460e+1, 5.419e-2
7.470e+1, 5.694e-2
7.480e+1, 5.968e-2
7.490e+1, 6.240e-2
7.500e+1, 6.512e-2
7.510e+1, 6.783e-2
7.520e+1, 7.052e-2
7.530e+1, 7.320e-2
7.540e+1, 7.584e-2
7.550e+1, 7.849e-2
7.560e+1, 8.112e-2
7.570e+1, 8.373e-2
7.580e+1, 8.632e-2
7.590e+1, 8.890e-2
7.600e+1, 9.144e-2
7.610e+1, 9.398e-2
7.620e+1, 9.651e-2
7.630e+1, 9.901e-2
7.640e+1, -9.506e-3
7.650e+1, -7.213e-2
7.660e+1, -1.101e-1
7.670e+1, -1.386e-1
7.680e+1, -1.617e-1
7.690e+1, -1.813e-1
7.700e+1, -1.982e-1
7.710e+1, -2.138e-1
7.720e+1, -2.274e-1
7.730e+1, -2.394e-1
7.740e+1, -2.508e-1
7.750e+1, -2.613e-1
7.760e+1, -2.712e-1
7.770e+1, -2.805e-1
7.780e+1, -2.893e-1
7.790e+1, -2.976e-1
7.800e+1, -3.056e-1
7.810e+1, -3.133e-1
7.820e+1, -3.205e-1
7.830e+1, -3.274e-1
7.840e+1, -3.340e-1
7.850e+1, -3.404e-1
7.860e+1, -3.466e-1
7.870e+1, -3.525e-1
7.880e+1, -3.583e-1
7.890e+1, -3.639e-1
7.900e+1, -3.694e-1
7.910e+1, -3.747e-1
7.920e+1, -3.799e-1
7.930e+1, -3.850e-1
7.940e+1, -3.900e-1
7.950e+1, -3.948e-1
7.960e+1, -3.995e-1
7.970e+1, -4.042e-1
7.980e+1, -4.087e-1
7.990e+1, -4.132e-1
8.000e+1, -4.176e-1
8.010e+1, -4.219e-1
8.020e+1, -4.261e-1
8.030e+1, -4.302e-1
8.040e+1, -4.343e-1
8.050e+1, -4.383e-1
8.060e+1, -4.423e-1
8.070e+1, -4.462e-1
8.080e+1, -4.500e-1
8.090e+1, -4.538e-1
8.100e+1, -4.575e-1
8.110e+1, -4.612e-1
8.120e+1, -4.648e-1
8.130e+1, -4.684e-1
8.140e+1, -4.719e-1
8.150e+1, -4.754e-1
8.160e+1, -4.789e-1
8.170e+1, -4.823e-1
8.180e+1, -4.857e-1
8.190e+1, -4.890e-1
8.200e+1, -4.923e-1
8.210e+1, -4.956e-1
8.220e+1, -4.988e-1
8.230e+1, -5.020e-1
8.240e+1, -5.052e-1
8.250e+1, -5.084e-1
8.260e+1, -5.115e-1
8.270e+1, -5.146e-1
8.280e+1, -5.176e-1
8.290e+1, -5.207e-1
8.300e+1, -5.237e-1
8.310e+1, -5.267e-1
8.320e+1, -5.296e-1
8.330e+1, -5.326e-1
8.340e+1, -5.355e-1
8.350e+1, -5.384e-1
8.360e+1, -5.413e-1
8.370e+1, -5.442e-1
8.380e+1, -5.470e-1
8.390e+1, -5.498e-1
8.400e+1, -5.526e-1
8.410e+1, -5.554e-1
8.420e+1, -5.582e-1
8.430e+1, -5.609e-1
8.440e+1, -5.637e-1
8.450e+1, -5.664e-1
8.460e+1, -5.691e-1
8.470e+1, -5.718e-1
8.480e+1, -5.744e-1
8.490e+1, -5.771e-1
8.500e+1, -5.797e-1
8.510e+1, -5.824e-1
8.520e+1, -5.850e-1
8.530e+1, -5.876e-1
8.540e+1, -5.902e-1
8.550e+1, -5.928e-1
8.560e+1, -5.954e-1
8.570e+1, -5.979e-1
8.580e+1, -6.005e-1
8.590e+1, -6.030e-1
8.600e+1, -6.055e-1
8.610e+1, -6.081e-1
8.620e+1, -6.106e-1
8.630e+1, -6.131e-1
8.640e+1, -6.156e-1
8.650e+1, -6.180e-1
8.660e+1, -6.205e-1
8.670e+1, -6.229e-1
8.680e+1, -6.254e-1
8.690e+1, -6.278e-1
8.700e+1, -6.303e-1
8.710e+1, -6.327e-1
8.720e+1, -6.351e-1
8.730e+1, -6.375e-1
8.740e+1, -6.399e-1
8.750e+1, -6.423e-1
8.760e+1, -6.446e-1
8.770e+1, -6.470e-1
8.780e+1, -6.493e-1
8.790e+1, -6.517e-1
8.800e+1, -6.540e-1
8.810e+1, -6.564e-1
8.820e+1, -6.587e-1
8.830e+1, -6.610e-1
8.840e+1, -6.633e-1
8.850e+1, -6.656e-1
8.860e+1, -6.678e-1
8.870e+1, -6.701e-1
8.880e+1, -6.724e-1
8.890e+1, -6.747e-1
8.900e+1, -6.769e-1
8.910e+1, -6.792e-1
8.920e+1, -6.814e-1
8.930e+1, -6.836e-1
8.940e+1, -6.859e-1
8.950e+1, -6.881e-1
8.960e+1, -6.903e-1
8.970e+1, -6.925e-1
8.980e+1, -6.947e-1
8.990e+1, -6.969e-1
9.000e+1, -6.991e-1
9.010e+1, -7.013e-1
9.020e+1, -7.035e-1
9.030e+1, -7.057e-1
9.040e+1, -7.079e-1
9.050e+1, -7.101e-1
9.060e+1, -7.123e-1
9.070e+1, -7.144e-1
9.080e+1, -7.166e-1
9.090e+1, -7.188e-1
9.100e+1, -7.210e-1
9.110e+1, -7.231e-1
9.120e+1, -7.253e-1
9.130e+1, -7.275e-1
9.140e+1, -7.296e-1
9.150e+1, -7.318e-1
9.160e+1, -7.340e-1
9.170e+1, -7.361e-1
9.180e+1, -7.383e-1
9.190e+1, -7.405e-1
9.200e+1, -7.427e-1
9.210e+1, -7.448e-1
9.220e+1, -7.470e-1
9.230e+1, -7.491e-1
9.240e+1, -7.513e-1
9.250e+1, -7.534e-1
9.260e+1, -7.556e-1
9.270e+1, -7.578e-1
9.280e+1, -7.599e-1
9.290e+1, -7.621e-1
9.300e+1, -7.642e-1
9.310e+1, -7.664e-1
9.320e+1, -7.685e-1
9.330e+1, -7.707e-1
9.340e+1, -7.728e-1
9.350e+1, -7.750e-1
9.360e+1, -7.771e-1
9.370e+1, -7.793e-1
9.380e+1, -7.814e-1
9.390e+1, -7.836e-1
9.400e+1, -7.857e-1
9.410e+1, -7.879e-1
9.420e+1, -7.900e-1
9.430e+1, -7.921e-1
9.440e+1, -7.943e-1
9.450e+1, -7.964e-1
9.460e+1, -7.986e-1
9.470e+1, -8.007e-1
9.480e+1, -8.028e-1
9.490e+1, -8.049e-1
9.500e+1, -8.070e-1
9.510e+1, -8.091e-1
9.520e+1, -8.113e-1
9.530e+1, -8.134e-1
9.540e+1, -8.155e-1
9.550e+1, -8.177e-1
9.560e+1, -8.198e-1
9.570e+1, -8.219e-1
9.580e+1, -8.240e-1
9.590e+1, -8.261e-1
9.600e+1, -8.282e-1
9.610e+1, -8.303e-1
9.620e+1, -8.325e-1
9.630e+1, -8.346e-1
9.640e+1, -8.367e-1
9.650e+1, -8.388e-1
9.660e+1, -8.409e-1
9.670e+1, -8.430e-1
9.680e+1, -8.451e-1
9.690e+1, -8.471e-1
9.700e+1, -8.492e-1
9.710e+1, -8.513e-1
9.720e+1, -8.534e-1
9.730e+1, -8.555e-1
9.740e+1, -8.575e-1
9.750e+1, -8.596e-1
9.760e+1, -8.617e-1
9.770e+1, -8.638e-1
9.780e+1, -8.659e-1
9.790e+1, -8.679e-1
9.800e+1, -8.700e-1
9.810e+1, -8.720e-1
9.820e+1, -8.741e-1
9.830e+1, -8.761e-1
9.840e+1, -8.782e-1
9.850e+1, -8.802e-1
9.860e+1, -8.822e-1
9.870e+1, -8.842e-1
9.880e+1, -8.863e-1
9.890e+1, -8.883e-1
9.900e+1, -8.903e-1
9.910e+1, -8.923e-1
9.920e+1, -8.943e-1
9.930e+1, -8.963e-1
9.940e+1, -8.983e-1
