Apr. 13, 2018   19:00:26
Chronopotentiometry
File: c:\users\lingd\google drive\Data Source:  Experiment
Instrument Model:  CHI660E
Header: 
Note: 

Cathodic Current (A) = 0.18
Anodic Current (A) = 0.18
Init P/N = N
Data Storage Interval (s) = 0.001
High E Limit (V) = 0
Low E Limit (V) = -1
Cathodic Time (s) = 10
Anodic Time (s) = 10
Current Switching Polarity = Potential
Segment = 5

Time/sec, Potential/V

1.000e-3, -7.563e-1
2.000e-3, -7.606e-1
3.000e-3, -7.734e-1
4.000e-3, -7.818e-1
5.000e-3, -7.848e-1
6.000e-3, -7.859e-1
7.000e-3, -7.864e-1
8.000e-3, -7.865e-1
9.000e-3, -7.864e-1
1.000e-2, -7.861e-1
1.100e-2, -7.858e-1
1.200e-2, -7.853e-1
1.300e-2, -7.849e-1
1.400e-2, -7.844e-1
1.500e-2, -7.839e-1
1.600e-2, -7.834e-1
1.700e-2, -7.829e-1
1.800e-2, -7.823e-1
1.900e-2, -7.817e-1
2.000e-2, -7.812e-1
2.100e-2, -7.806e-1
2.200e-2, -7.800e-1
2.300e-2, -7.794e-1
2.400e-2, -7.788e-1
2.500e-2, -7.782e-1
2.600e-2, -7.776e-1
2.700e-2, -7.769e-1
2.800e-2, -7.763e-1
2.900e-2, -7.757e-1
3.000e-2, -7.751e-1
3.100e-2, -7.744e-1
3.200e-2, -7.737e-1
3.300e-2, -7.730e-1
3.400e-2, -7.723e-1
3.500e-2, -7.717e-1
3.600e-2, -7.709e-1
3.700e-2, -7.702e-1
3.800e-2, -7.694e-1
3.900e-2, -7.687e-1
4.000e-2, -7.679e-1
4.100e-2, -7.672e-1
4.200e-2, -7.665e-1
4.300e-2, -7.658e-1
4.400e-2, -7.651e-1
4.500e-2, -7.646e-1
4.600e-2, -7.639e-1
4.700e-2, -7.634e-1
4.800e-2, -7.631e-1
4.900e-2, -7.628e-1
5.000e-2, -7.625e-1
5.100e-2, -7.622e-1
5.200e-2, -7.618e-1
5.300e-2, -7.613e-1
5.400e-2, -7.608e-1
5.500e-2, -7.602e-1
5.600e-2, -7.595e-1
5.700e-2, -7.587e-1
5.800e-2, -7.579e-1
5.900e-2, -7.569e-1
6.000e-2, -7.557e-1
6.100e-2, -7.543e-1
6.200e-2, -7.526e-1
6.300e-2, -7.509e-1
6.400e-2, -7.494e-1
6.500e-2, -7.480e-1
6.600e-2, -7.471e-1
6.700e-2, -7.474e-1
6.800e-2, -7.477e-1
6.900e-2, -7.474e-1
7.000e-2, -7.472e-1
7.100e-2, -7.472e-1
7.200e-2, -7.474e-1
7.300e-2, -7.478e-1
7.400e-2, -7.479e-1
7.500e-2, -7.480e-1
7.600e-2, -7.479e-1
7.700e-2, -7.476e-1
7.800e-2, -7.474e-1
7.900e-2, -7.471e-1
8.000e-2, -7.467e-1
8.100e-2, -7.463e-1
8.200e-2, -7.460e-1
8.300e-2, -7.455e-1
8.400e-2, -7.451e-1
8.500e-2, -7.446e-1
8.600e-2, -7.442e-1
8.700e-2, -7.438e-1
8.800e-2, -7.433e-1
8.900e-2, -7.428e-1
9.000e-2, -7.423e-1
9.100e-2, -7.418e-1
9.200e-2, -7.413e-1
9.300e-2, -7.408e-1
9.400e-2, -7.403e-1
9.500e-2, -7.397e-1
9.600e-2, -7.393e-1
9.700e-2, -7.387e-1
9.800e-2, -7.382e-1
9.900e-2, -7.377e-1
1.000e-1, -7.372e-1
1.010e-1, -7.367e-1
1.020e-1, -7.362e-1
1.030e-1, -7.356e-1
1.040e-1, -7.351e-1
1.050e-1, -7.346e-1
1.060e-1, -7.341e-1
1.070e-1, -7.335e-1
1.080e-1, -7.331e-1
1.090e-1, -7.325e-1
1.100e-1, -7.320e-1
1.110e-1, -7.314e-1
1.120e-1, -7.309e-1
1.130e-1, -7.304e-1
1.140e-1, -7.298e-1
1.150e-1, -7.293e-1
1.160e-1, -7.288e-1
1.170e-1, -7.282e-1
1.180e-1, -7.277e-1
1.190e-1, -7.272e-1
1.200e-1, -7.267e-1
1.210e-1, -7.261e-1
1.220e-1, -7.256e-1
1.230e-1, -7.251e-1
1.240e-1, -7.245e-1
1.250e-1, -7.240e-1
1.260e-1, -7.235e-1
1.270e-1, -7.230e-1
1.280e-1, -7.224e-1
1.290e-1, -7.219e-1
1.300e-1, -7.213e-1
1.310e-1, -7.208e-1
1.320e-1, -7.203e-1
1.330e-1, -7.197e-1
1.340e-1, -7.192e-1
1.350e-1, -7.187e-1
1.360e-1, -7.181e-1
1.370e-1, -7.176e-1
1.380e-1, -7.170e-1
1.390e-1, -7.165e-1
1.400e-1, -7.160e-1
1.410e-1, -7.155e-1
1.420e-1, -7.149e-1
1.430e-1, -7.144e-1
1.440e-1, -7.139e-1
1.450e-1, -7.133e-1
1.460e-1, -7.128e-1
1.470e-1, -7.122e-1
1.480e-1, -7.117e-1
1.490e-1, -7.112e-1
1.500e-1, -7.107e-1
1.510e-1, -7.101e-1
1.520e-1, -7.096e-1
1.530e-1, -7.091e-1
1.540e-1, -7.085e-1
1.550e-1, -7.080e-1
1.560e-1, -7.074e-1
1.570e-1, -7.069e-1
1.580e-1, -7.064e-1
1.590e-1, -7.059e-1
1.600e-1, -7.053e-1
1.610e-1, -7.048e-1
1.620e-1, -7.042e-1
1.630e-1, -7.037e-1
1.640e-1, -7.032e-1
1.650e-1, -7.026e-1
1.660e-1, -7.021e-1
1.670e-1, -7.016e-1
1.680e-1, -7.010e-1
1.690e-1, -7.005e-1
1.700e-1, -6.999e-1
1.710e-1, -6.994e-1
1.720e-1, -6.989e-1
1.730e-1, -6.983e-1
1.740e-1, -6.978e-1
1.750e-1, -6.972e-1
1.760e-1, -6.967e-1
1.770e-1, -6.962e-1
1.780e-1, -6.956e-1
1.790e-1, -6.952e-1
1.800e-1, -6.946e-1
1.810e-1, -6.941e-1
1.820e-1, -6.935e-1
1.830e-1, -6.930e-1
1.840e-1, -6.924e-1
1.850e-1, -6.919e-1
1.860e-1, -6.914e-1
1.870e-1, -6.908e-1
1.880e-1, -6.903e-1
1.890e-1, -6.898e-1
1.900e-1, -6.892e-1
1.910e-1, -6.887e-1
1.920e-1, -6.881e-1
1.930e-1, -6.876e-1
1.940e-1, -6.870e-1
1.950e-1, -6.865e-1
1.960e-1, -6.860e-1
1.970e-1, -6.854e-1
1.980e-1, -6.849e-1
1.990e-1, -6.844e-1
2.000e-1, -6.839e-1
2.010e-1, -6.833e-1
2.020e-1, -6.828e-1
2.030e-1, -6.822e-1
2.040e-1, -6.817e-1
2.050e-1, -6.811e-1
2.060e-1, -6.806e-1
2.070e-1, -6.801e-1
2.080e-1, -6.795e-1
2.090e-1, -6.790e-1
2.100e-1, -6.784e-1
2.110e-1, -6.779e-1
2.120e-1, -6.774e-1
2.130e-1, -6.768e-1
2.140e-1, -6.763e-1
2.150e-1, -6.758e-1
2.160e-1, -6.752e-1
2.170e-1, -6.747e-1
2.180e-1, -6.741e-1
2.190e-1, -6.736e-1
2.200e-1, -6.731e-1
2.210e-1, -6.725e-1
2.220e-1, -6.720e-1
2.230e-1, -6.715e-1
2.240e-1, -6.710e-1
2.250e-1, -6.704e-1
2.260e-1, -6.699e-1
2.270e-1, -6.693e-1
2.280e-1, -6.688e-1
2.290e-1, -6.682e-1
2.300e-1, -6.677e-1
2.310e-1, -6.672e-1
2.320e-1, -6.667e-1
2.330e-1, -6.661e-1
2.340e-1, -6.655e-1
2.350e-1, -6.650e-1
2.360e-1, -6.645e-1
2.370e-1, -6.639e-1
2.380e-1, -6.634e-1
2.390e-1, -6.629e-1
2.400e-1, -6.623e-1
2.410e-1, -6.618e-1
2.420e-1, -6.612e-1
2.430e-1, -6.607e-1
2.440e-1, -6.601e-1
2.450e-1, -6.596e-1
2.460e-1, -6.590e-1
2.470e-1, -6.585e-1
2.480e-1, -6.580e-1
2.490e-1, -6.574e-1
2.500e-1, -6.569e-1
2.510e-1, -6.564e-1
2.520e-1, -6.559e-1
2.530e-1, -6.553e-1
2.540e-1, -6.547e-1
2.550e-1, -6.542e-1
2.560e-1, -6.537e-1
2.570e-1, -6.531e-1
2.580e-1, -6.526e-1
2.590e-1, -6.521e-1
2.600e-1, -6.515e-1
2.610e-1, -6.510e-1
2.620e-1, -6.504e-1
2.630e-1, -6.499e-1
2.640e-1, -6.493e-1
2.650e-1, -6.488e-1
2.660e-1, -6.482e-1
2.670e-1, -6.477e-1
2.680e-1, -6.472e-1
2.690e-1, -6.467e-1
2.700e-1, -6.461e-1
2.710e-1, -6.456e-1
2.720e-1, -6.450e-1
2.730e-1, -6.445e-1
2.740e-1, -6.439e-1
2.750e-1, -6.434e-1
2.760e-1, -6.429e-1
2.770e-1, -6.423e-1
2.780e-1, -6.418e-1
2.790e-1, -6.412e-1
2.800e-1, -6.406e-1
2.810e-1, -6.401e-1
2.820e-1, -6.396e-1
2.830e-1, -6.390e-1
2.840e-1, -6.385e-1
2.850e-1, -6.380e-1
2.860e-1, -6.374e-1
2.870e-1, -6.369e-1
2.880e-1, -6.364e-1
2.890e-1, -6.358e-1
2.900e-1, -6.353e-1
2.910e-1, -6.347e-1
2.920e-1, -6.342e-1
2.930e-1, -6.336e-1
2.940e-1, -6.331e-1
2.950e-1, -6.325e-1
2.960e-1, -6.320e-1
2.970e-1, -6.315e-1
2.980e-1, -6.309e-1
2.990e-1, -6.304e-1
3.000e-1, -6.298e-1
3.010e-1, -6.293e-1
3.020e-1, -6.287e-1
3.030e-1, -6.282e-1
3.040e-1, -6.277e-1
3.050e-1, -6.271e-1
3.060e-1, -6.266e-1
3.070e-1, -6.260e-1
3.080e-1, -6.255e-1
3.090e-1, -6.250e-1
3.100e-1, -6.244e-1
3.110e-1, -6.239e-1
3.120e-1, -6.233e-1
3.130e-1, -6.228e-1
3.140e-1, -6.222e-1
3.150e-1, -6.217e-1
3.160e-1, -6.211e-1
3.170e-1, -6.206e-1
3.180e-1, -6.200e-1
3.190e-1, -6.195e-1
3.200e-1, -6.189e-1
3.210e-1, -6.184e-1
3.220e-1, -6.178e-1
3.230e-1, -6.173e-1
3.240e-1, -6.168e-1
3.250e-1, -6.162e-1
3.260e-1, -6.156e-1
3.270e-1, -6.151e-1
3.280e-1, -6.146e-1
3.290e-1, -6.140e-1
3.300e-1, -6.135e-1
3.310e-1, -6.129e-1
3.320e-1, -6.124e-1
3.330e-1, -6.118e-1
3.340e-1, -6.113e-1
3.350e-1, -6.108e-1
3.360e-1, -6.102e-1
3.370e-1, -6.097e-1
3.380e-1, -6.091e-1
3.390e-1, -6.085e-1
3.400e-1, -6.080e-1
3.410e-1, -6.075e-1
3.420e-1, -6.069e-1
3.430e-1, -6.064e-1
3.440e-1, -6.058e-1
3.450e-1, -6.053e-1
3.460e-1, -6.047e-1
3.470e-1, -6.042e-1
3.480e-1, -6.036e-1
3.490e-1, -6.031e-1
3.500e-1, -6.025e-1
3.510e-1, -6.020e-1
3.520e-1, -6.014e-1
3.530e-1, -6.009e-1
3.540e-1, -6.003e-1
3.550e-1, -5.998e-1
3.560e-1, -5.992e-1
3.570e-1, -5.987e-1
3.580e-1, -5.981e-1
3.590e-1, -5.976e-1
3.600e-1, -5.970e-1
3.610e-1, -5.965e-1
3.620e-1, -5.959e-1
3.630e-1, -5.954e-1
3.640e-1, -5.948e-1
3.650e-1, -5.943e-1
3.660e-1, -5.937e-1
3.670e-1, -5.932e-1
3.680e-1, -5.927e-1
3.690e-1, -5.921e-1
3.700e-1, -5.916e-1
3.710e-1, -5.910e-1
3.720e-1, -5.905e-1
3.730e-1, -5.899e-1
3.740e-1, -5.894e-1
3.750e-1, -5.888e-1
3.760e-1, -5.883e-1
3.770e-1, -5.877e-1
3.780e-1, -5.872e-1
3.790e-1, -5.866e-1
3.800e-1, -5.861e-1
3.810e-1, -5.855e-1
3.820e-1, -5.850e-1
3.830e-1, -5.844e-1
3.840e-1, -5.838e-1
3.850e-1, -5.833e-1
3.860e-1, -5.827e-1
3.870e-1, -5.822e-1
3.880e-1, -5.816e-1
3.890e-1, -5.811e-1
3.900e-1, -5.805e-1
3.910e-1, -5.800e-1
3.920e-1, -5.794e-1
3.930e-1, -5.789e-1
3.940e-1, -5.784e-1
3.950e-1, -5.778e-1
3.960e-1, -5.772e-1
3.970e-1, -5.767e-1
3.980e-1, -5.761e-1
3.990e-1, -5.756e-1
4.000e-1, -5.750e-1
4.010e-1, -5.745e-1
4.020e-1, -5.739e-1
4.030e-1, -5.733e-1
4.040e-1, -5.728e-1
4.050e-1, -5.722e-1
4.060e-1, -5.717e-1
4.070e-1, -5.711e-1
4.080e-1, -5.706e-1
4.090e-1, -5.700e-1
4.100e-1, -5.695e-1
4.110e-1, -5.689e-1
4.120e-1, -5.684e-1
4.130e-1, -5.678e-1
4.140e-1, -5.672e-1
4.150e-1, -5.667e-1
4.160e-1, -5.661e-1
4.170e-1, -5.656e-1
4.180e-1, -5.650e-1
4.190e-1, -5.644e-1
4.200e-1, -5.639e-1
4.210e-1, -5.633e-1
4.220e-1, -5.628e-1
4.230e-1, -5.622e-1
4.240e-1, -5.617e-1
4.250e-1, -5.611e-1
4.260e-1, -5.605e-1
4.270e-1, -5.600e-1
4.280e-1, -5.595e-1
4.290e-1, -5.589e-1
4.300e-1, -5.583e-1
4.310e-1, -5.578e-1
4.320e-1, -5.573e-1
4.330e-1, -5.566e-1
4.340e-1, -5.561e-1
4.350e-1, -5.555e-1
4.360e-1, -5.550e-1
4.370e-1, -5.544e-1
4.380e-1, -5.539e-1
4.390e-1, -5.533e-1
4.400e-1, -5.528e-1
4.410e-1, -5.522e-1
4.420e-1, -5.517e-1
4.430e-1, -5.511e-1
4.440e-1, -5.505e-1
4.450e-1, -5.500e-1
4.460e-1, -5.494e-1
4.470e-1, -5.489e-1
4.480e-1, -5.484e-1
4.490e-1, -5.478e-1
4.500e-1, -5.472e-1
4.510e-1, -5.466e-1
4.520e-1, -5.461e-1
4.530e-1, -5.455e-1
4.540e-1, -5.449e-1
4.550e-1, -5.444e-1
4.560e-1, -5.438e-1
4.570e-1, -5.432e-1
4.580e-1, -5.427e-1
4.590e-1, -5.421e-1
4.600e-1, -5.416e-1
4.610e-1, -5.410e-1
4.620e-1, -5.405e-1
4.630e-1, -5.399e-1
4.640e-1, -5.393e-1
4.650e-1, -5.388e-1
4.660e-1, -5.382e-1
4.670e-1, -5.377e-1
4.680e-1, -5.371e-1
4.690e-1, -5.365e-1
4.700e-1, -5.360e-1
4.710e-1, -5.354e-1
4.720e-1, -5.348e-1
4.730e-1, -5.343e-1
4.740e-1, -5.337e-1
4.750e-1, -5.331e-1
4.760e-1, -5.326e-1
4.770e-1, -5.320e-1
4.780e-1, -5.314e-1
4.790e-1, -5.309e-1
4.800e-1, -5.303e-1
4.810e-1, -5.298e-1
4.820e-1, -5.292e-1
4.830e-1, -5.286e-1
4.840e-1, -5.281e-1
4.850e-1, -5.275e-1
4.860e-1, -5.270e-1
4.870e-1, -5.264e-1
4.880e-1, -5.258e-1
4.890e-1, -5.253e-1
4.900e-1, -5.247e-1
4.910e-1, -5.241e-1
4.920e-1, -5.235e-1
4.930e-1, -5.230e-1
4.940e-1, -5.224e-1
4.950e-1, -5.218e-1
4.960e-1, -5.212e-1
4.970e-1, -5.207e-1
4.980e-1, -5.202e-1
4.990e-1, -5.196e-1
5.000e-1, -5.190e-1
5.010e-1, -5.184e-1
5.020e-1, -5.179e-1
5.030e-1, -5.173e-1
5.040e-1, -5.167e-1
5.050e-1, -5.162e-1
5.060e-1, -5.156e-1
5.070e-1, -5.150e-1
5.080e-1, -5.145e-1
5.090e-1, -5.139e-1
5.100e-1, -5.134e-1
5.110e-1, -5.128e-1
5.120e-1, -5.122e-1
5.130e-1, -5.117e-1
5.140e-1, -5.111e-1
5.150e-1, -5.105e-1
5.160e-1, -5.099e-1
5.170e-1, -5.094e-1
5.180e-1, -5.088e-1
5.190e-1, -5.083e-1
5.200e-1, -5.077e-1
5.210e-1, -5.071e-1
5.220e-1, -5.065e-1
5.230e-1, -5.059e-1
5.240e-1, -5.054e-1
5.250e-1, -5.048e-1
5.260e-1, -5.042e-1
5.270e-1, -5.037e-1
5.280e-1, -5.031e-1
5.290e-1, -5.025e-1
5.300e-1, -5.020e-1
5.310e-1, -5.014e-1
5.320e-1, -5.008e-1
5.330e-1, -5.003e-1
5.340e-1, -4.997e-1
5.350e-1, -4.991e-1
5.360e-1, -4.985e-1
5.370e-1, -4.980e-1
5.380e-1, -4.974e-1
5.390e-1, -4.968e-1
5.400e-1, -4.962e-1
5.410e-1, -4.956e-1
5.420e-1, -4.951e-1
5.430e-1, -4.945e-1
5.440e-1, -4.939e-1
5.450e-1, -4.934e-1
5.460e-1, -4.928e-1
5.470e-1, -4.922e-1
5.480e-1, -4.916e-1
5.490e-1, -4.911e-1
5.500e-1, -4.905e-1
5.510e-1, -4.899e-1
5.520e-1, -4.894e-1
5.530e-1, -4.888e-1
5.540e-1, -4.882e-1
5.550e-1, -4.876e-1
5.560e-1, -4.870e-1
5.570e-1, -4.865e-1
5.580e-1, -4.859e-1
5.590e-1, -4.853e-1
5.600e-1, -4.847e-1
5.610e-1, -4.841e-1
5.620e-1, -4.835e-1
5.630e-1, -4.830e-1
5.640e-1, -4.824e-1
5.650e-1, -4.818e-1
5.660e-1, -4.813e-1
5.670e-1, -4.807e-1
5.680e-1, -4.801e-1
5.690e-1, -4.795e-1
5.700e-1, -4.790e-1
5.710e-1, -4.784e-1
5.720e-1, -4.778e-1
5.730e-1, -4.772e-1
5.740e-1, -4.766e-1
5.750e-1, -4.761e-1
5.760e-1, -4.755e-1
5.770e-1, -4.749e-1
5.780e-1, -4.744e-1
5.790e-1, -4.738e-1
5.800e-1, -4.732e-1
5.810e-1, -4.726e-1
5.820e-1, -4.720e-1
5.830e-1, -4.715e-1
5.840e-1, -4.709e-1
5.850e-1, -4.703e-1
5.860e-1, -4.697e-1
5.870e-1, -4.691e-1
5.880e-1, -4.686e-1
5.890e-1, -4.680e-1
5.900e-1, -4.674e-1
5.910e-1, -4.668e-1
5.920e-1, -4.662e-1
5.930e-1, -4.656e-1
5.940e-1, -4.650e-1
5.950e-1, -4.645e-1
5.960e-1, -4.639e-1
5.970e-1, -4.633e-1
5.980e-1, -4.627e-1
5.990e-1, -4.621e-1
6.000e-1, -4.615e-1
6.010e-1, -4.610e-1
6.020e-1, -4.604e-1
6.030e-1, -4.598e-1
6.040e-1, -4.592e-1
6.050e-1, -4.586e-1
6.060e-1, -4.580e-1
6.070e-1, -4.575e-1
6.080e-1, -4.569e-1
6.090e-1, -4.563e-1
6.100e-1, -4.557e-1
6.110e-1, -4.551e-1
6.120e-1, -4.545e-1
6.130e-1, -4.539e-1
6.140e-1, -4.534e-1
6.150e-1, -4.528e-1
6.160e-1, -4.522e-1
6.170e-1, -4.516e-1
6.180e-1, -4.511e-1
6.190e-1, -4.504e-1
6.200e-1, -4.498e-1
6.210e-1, -4.493e-1
6.220e-1, -4.487e-1
6.230e-1, -4.481e-1
6.240e-1, -4.475e-1
6.250e-1, -4.469e-1
6.260e-1, -4.463e-1
6.270e-1, -4.457e-1
6.280e-1, -4.451e-1
6.290e-1, -4.445e-1
6.300e-1, -4.440e-1
6.310e-1, -4.433e-1
6.320e-1, -4.428e-1
6.330e-1, -4.421e-1
6.340e-1, -4.416e-1
6.350e-1, -4.410e-1
6.360e-1, -4.404e-1
6.370e-1, -4.399e-1
6.380e-1, -4.392e-1
6.390e-1, -4.386e-1
6.400e-1, -4.381e-1
6.410e-1, -4.375e-1
6.420e-1, -4.369e-1
6.430e-1, -4.363e-1
6.440e-1, -4.358e-1
6.450e-1, -4.351e-1
6.460e-1, -4.345e-1
6.470e-1, -4.339e-1
6.480e-1, -4.333e-1
6.490e-1, -4.328e-1
6.500e-1, -4.322e-1
6.510e-1, -4.316e-1
6.520e-1, -4.310e-1
6.530e-1, -4.304e-1
6.540e-1, -4.298e-1
6.550e-1, -4.292e-1
6.560e-1, -4.287e-1
6.570e-1, -4.280e-1
6.580e-1, -4.274e-1
6.590e-1, -4.268e-1
6.600e-1, -4.262e-1
6.610e-1, -4.256e-1
6.620e-1, -4.250e-1
6.630e-1, -4.244e-1
6.640e-1, -4.238e-1
6.650e-1, -4.232e-1
6.660e-1, -4.226e-1
6.670e-1, -4.221e-1
6.680e-1, -4.215e-1
6.690e-1, -4.209e-1
6.700e-1, -4.203e-1
6.710e-1, -4.197e-1
6.720e-1, -4.191e-1
6.730e-1, -4.185e-1
6.740e-1, -4.179e-1
6.750e-1, -4.173e-1
6.760e-1, -4.166e-1
6.770e-1, -4.161e-1
6.780e-1, -4.155e-1
6.790e-1, -4.149e-1
6.800e-1, -4.143e-1
6.810e-1, -4.137e-1
6.820e-1, -4.131e-1
6.830e-1, -4.125e-1
6.840e-1, -4.119e-1
6.850e-1, -4.113e-1
6.860e-1, -4.107e-1
6.870e-1, -4.101e-1
6.880e-1, -4.095e-1
6.890e-1, -4.089e-1
6.900e-1, -4.083e-1
6.910e-1, -4.077e-1
6.920e-1, -4.071e-1
6.930e-1, -4.065e-1
6.940e-1, -4.059e-1
6.950e-1, -4.052e-1
6.960e-1, -4.047e-1
6.970e-1, -4.040e-1
6.980e-1, -4.035e-1
6.990e-1, -4.028e-1
7.000e-1, -4.023e-1
7.010e-1, -4.017e-1
7.020e-1, -4.010e-1
7.030e-1, -4.005e-1
7.040e-1, -3.998e-1
7.050e-1, -3.992e-1
7.060e-1, -3.987e-1
7.070e-1, -3.980e-1
7.080e-1, -3.975e-1
7.090e-1, -3.969e-1
7.100e-1, -3.962e-1
7.110e-1, -3.956e-1
7.120e-1, -3.950e-1
7.130e-1, -3.944e-1
7.140e-1, -3.938e-1
7.150e-1, -3.932e-1
7.160e-1, -3.926e-1
7.170e-1, -3.920e-1
7.180e-1, -3.914e-1
7.190e-1, -3.908e-1
7.200e-1, -3.902e-1
7.210e-1, -3.896e-1
7.220e-1, -3.890e-1
7.230e-1, -3.884e-1
7.240e-1, -3.877e-1
7.250e-1, -3.871e-1
7.260e-1, -3.865e-1
7.270e-1, -3.860e-1
7.280e-1, -3.853e-1
7.290e-1, -3.847e-1
7.300e-1, -3.841e-1
7.310e-1, -3.835e-1
7.320e-1, -3.829e-1
7.330e-1, -3.823e-1
7.340e-1, -3.817e-1
7.350e-1, -3.811e-1
7.360e-1, -3.805e-1
7.370e-1, -3.798e-1
7.380e-1, -3.792e-1
7.390e-1, -3.786e-1
7.400e-1, -3.780e-1
7.410e-1, -3.774e-1
7.420e-1, -3.768e-1
7.430e-1, -3.762e-1
7.440e-1, -3.756e-1
7.450e-1, -3.749e-1
7.460e-1, -3.744e-1
7.470e-1, -3.737e-1
7.480e-1, -3.732e-1
7.490e-1, -3.725e-1
7.500e-1, -3.719e-1
7.510e-1, -3.713e-1
7.520e-1, -3.707e-1
7.530e-1, -3.701e-1
7.540e-1, -3.694e-1
7.550e-1, -3.688e-1
7.560e-1, -3.682e-1
7.570e-1, -3.676e-1
7.580e-1, -3.670e-1
7.590e-1, -3.664e-1
7.600e-1, -3.658e-1
7.610e-1, -3.651e-1
7.620e-1, -3.645e-1
7.630e-1, -3.639e-1
7.640e-1, -3.633e-1
7.650e-1, -3.627e-1
7.660e-1, -3.621e-1
7.670e-1, -3.615e-1
7.680e-1, -3.609e-1
7.690e-1, -3.602e-1
7.700e-1, -3.596e-1
7.710e-1, -3.590e-1
7.720e-1, -3.584e-1
7.730e-1, -3.578e-1
7.740e-1, -3.572e-1
7.750e-1, -3.565e-1
7.760e-1, -3.559e-1
7.770e-1, -3.553e-1
7.780e-1, -3.547e-1
7.790e-1, -3.541e-1
7.800e-1, -3.535e-1
7.810e-1, -3.529e-1
7.820e-1, -3.522e-1
7.830e-1, -3.516e-1
7.840e-1, -3.510e-1
7.850e-1, -3.503e-1
7.860e-1, -3.498e-1
7.870e-1, -3.491e-1
7.880e-1, -3.485e-1
7.890e-1, -3.479e-1
7.900e-1, -3.472e-1
7.910e-1, -3.466e-1
7.920e-1, -3.460e-1
7.930e-1, -3.454e-1
7.940e-1, -3.448e-1
7.950e-1, -3.441e-1
7.960e-1, -3.435e-1
7.970e-1, -3.429e-1
7.980e-1, -3.423e-1
7.990e-1, -3.417e-1
8.000e-1, -3.411e-1
8.010e-1, -3.404e-1
8.020e-1, -3.398e-1
8.030e-1, -3.392e-1
8.040e-1, -3.385e-1
8.050e-1, -3.379e-1
8.060e-1, -3.373e-1
8.070e-1, -3.367e-1
8.080e-1, -3.361e-1
8.090e-1, -3.354e-1
8.100e-1, -3.348e-1
8.110e-1, -3.342e-1
8.120e-1, -3.336e-1
8.130e-1, -3.330e-1
8.140e-1, -3.323e-1
8.150e-1, -3.317e-1
8.160e-1, -3.310e-1
8.170e-1, -3.304e-1
8.180e-1, -3.298e-1
8.190e-1, -3.292e-1
8.200e-1, -3.285e-1
8.210e-1, -3.279e-1
8.220e-1, -3.273e-1
8.230e-1, -3.267e-1
8.240e-1, -3.260e-1
8.250e-1, -3.254e-1
8.260e-1, -3.248e-1
8.270e-1, -3.242e-1
8.280e-1, -3.235e-1
8.290e-1, -3.229e-1
8.300e-1, -3.223e-1
8.310e-1, -3.217e-1
8.320e-1, -3.210e-1
8.330e-1, -3.204e-1
8.340e-1, -3.198e-1
8.350e-1, -3.192e-1
8.360e-1, -3.185e-1
8.370e-1, -3.179e-1
8.380e-1, -3.173e-1
8.390e-1, -3.166e-1
8.400e-1, -3.160e-1
8.410e-1, -3.154e-1
8.420e-1, -3.147e-1
8.430e-1, -3.141e-1
8.440e-1, -3.135e-1
8.450e-1, -3.129e-1
8.460e-1, -3.122e-1
8.470e-1, -3.116e-1
8.480e-1, -3.110e-1
8.490e-1, -3.103e-1
8.500e-1, -3.097e-1
8.510e-1, -3.090e-1
8.520e-1, -3.084e-1
8.530e-1, -3.078e-1
8.540e-1, -3.071e-1
8.550e-1, -3.065e-1
8.560e-1, -3.059e-1
8.570e-1, -3.053e-1
8.580e-1, -3.046e-1
8.590e-1, -3.040e-1
8.600e-1, -3.033e-1
8.610e-1, -3.027e-1
8.620e-1, -3.021e-1
8.630e-1, -3.014e-1
8.640e-1, -3.008e-1
8.650e-1, -3.001e-1
8.660e-1, -2.995e-1
8.670e-1, -2.989e-1
8.680e-1, -2.982e-1
8.690e-1, -2.976e-1
8.700e-1, -2.970e-1
8.710e-1, -2.963e-1
8.720e-1, -2.957e-1
8.730e-1, -2.951e-1
8.740e-1, -2.944e-1
8.750e-1, -2.938e-1
8.760e-1, -2.932e-1
8.770e-1, -2.925e-1
8.780e-1, -2.919e-1
8.790e-1, -2.912e-1
8.800e-1, -2.906e-1
8.810e-1, -2.899e-1
8.820e-1, -2.893e-1
8.830e-1, -2.886e-1
8.840e-1, -2.880e-1
8.850e-1, -2.873e-1
8.860e-1, -2.867e-1
8.870e-1, -2.860e-1
8.880e-1, -2.854e-1
8.890e-1, -2.848e-1
8.900e-1, -2.842e-1
8.910e-1, -2.835e-1
8.920e-1, -2.829e-1
8.930e-1, -2.822e-1
8.940e-1, -2.815e-1
8.950e-1, -2.809e-1
8.960e-1, -2.803e-1
8.970e-1, -2.797e-1
8.980e-1, -2.790e-1
8.990e-1, -2.784e-1
9.000e-1, -2.777e-1
9.010e-1, -2.771e-1
9.020e-1, -2.764e-1
9.030e-1, -2.758e-1
9.040e-1, -2.751e-1
9.050e-1, -2.745e-1
9.060e-1, -2.738e-1
9.070e-1, -2.732e-1
9.080e-1, -2.725e-1
9.090e-1, -2.719e-1
9.100e-1, -2.712e-1
9.110e-1, -2.706e-1
9.120e-1, -2.699e-1
9.130e-1, -2.693e-1
9.140e-1, -2.687e-1
9.150e-1, -2.680e-1
9.160e-1, -2.674e-1
9.170e-1, -2.667e-1
9.180e-1, -2.661e-1
9.190e-1, -2.654e-1
9.200e-1, -2.648e-1
9.210e-1, -2.641e-1
9.220e-1, -2.635e-1
9.230e-1, -2.628e-1
9.240e-1, -2.622e-1
9.250e-1, -2.615e-1
9.260e-1, -2.608e-1
9.270e-1, -2.602e-1
9.280e-1, -2.595e-1
9.290e-1, -2.589e-1
9.300e-1, -2.583e-1
9.310e-1, -2.576e-1
9.320e-1, -2.569e-1
9.330e-1, -2.563e-1
9.340e-1, -2.556e-1
9.350e-1, -2.550e-1
9.360e-1, -2.543e-1
9.370e-1, -2.537e-1
9.380e-1, -2.530e-1
9.390e-1, -2.524e-1
9.400e-1, -2.517e-1
9.410e-1, -2.510e-1
9.420e-1, -2.504e-1
9.430e-1, -2.497e-1
9.440e-1, -2.491e-1
9.450e-1, -2.484e-1
9.460e-1, -2.477e-1
9.470e-1, -2.471e-1
9.480e-1, -2.464e-1
9.490e-1, -2.458e-1
9.500e-1, -2.451e-1
9.510e-1, -2.445e-1
9.520e-1, -2.438e-1
9.530e-1, -2.432e-1
9.540e-1, -2.425e-1
9.550e-1, -2.418e-1
9.560e-1, -2.412e-1
9.570e-1, -2.406e-1
9.580e-1, -2.399e-1
9.590e-1, -2.392e-1
9.600e-1, -2.386e-1
9.610e-1, -2.380e-1
9.620e-1, -2.373e-1
9.630e-1, -2.366e-1
9.640e-1, -2.360e-1
9.650e-1, -2.353e-1
9.660e-1, -2.346e-1
9.670e-1, -2.340e-1
9.680e-1, -2.333e-1
9.690e-1, -2.326e-1
9.700e-1, -2.320e-1
9.710e-1, -2.313e-1
9.720e-1, -2.306e-1
9.730e-1, -2.300e-1
9.740e-1, -2.293e-1
9.750e-1, -2.287e-1
9.760e-1, -2.280e-1
9.770e-1, -2.273e-1
9.780e-1, -2.266e-1
9.790e-1, -2.260e-1
9.800e-1, -2.254e-1
9.810e-1, -2.247e-1
9.820e-1, -2.240e-1
9.830e-1, -2.234e-1
9.840e-1, -2.227e-1
9.850e-1, -2.220e-1
9.860e-1, -2.213e-1
9.870e-1, -2.207e-1
9.880e-1, -2.200e-1
9.890e-1, -2.194e-1
9.900e-1, -2.187e-1
9.910e-1, -2.180e-1
9.920e-1, -2.173e-1
9.930e-1, -2.167e-1
9.940e-1, -2.161e-1
9.950e-1, -2.154e-1
9.960e-1, -2.147e-1
9.970e-1, -2.140e-1
9.980e-1, -2.133e-1
9.990e-1, -2.127e-1
1.000e+0, -2.120e-1
1.001e+0, -2.114e-1
1.002e+0, -2.107e-1
1.003e+0, -2.100e-1
1.004e+0, -2.093e-1
1.005e+0, -2.086e-1
1.006e+0, -2.080e-1
1.007e+0, -2.073e-1
1.008e+0, -2.067e-1
1.009e+0, -2.060e-1
1.010e+0, -2.053e-1
1.011e+0, -2.046e-1
1.012e+0, -2.040e-1
1.013e+0, -2.033e-1
1.014e+0, -2.026e-1
1.015e+0, -2.020e-1
1.016e+0, -2.013e-1
1.017e+0, -2.006e-1
1.018e+0, -2.000e-1
1.019e+0, -1.993e-1
1.020e+0, -1.986e-1
1.021e+0, -1.979e-1
1.022e+0, -1.973e-1
1.023e+0, -1.966e-1
1.024e+0, -1.959e-1
1.025e+0, -1.952e-1
1.026e+0, -1.946e-1
1.027e+0, -1.939e-1
1.028e+0, -1.933e-1
1.029e+0, -1.926e-1
1.030e+0, -1.919e-1
1.031e+0, -1.912e-1
1.032e+0, -1.905e-1
1.033e+0, -1.899e-1
1.034e+0, -1.892e-1
1.035e+0, -1.885e-1
1.036e+0, -1.878e-1
1.037e+0, -1.872e-1
1.038e+0, -1.865e-1
1.039e+0, -1.858e-1
1.040e+0, -1.851e-1
1.041e+0, -1.845e-1
1.042e+0, -1.838e-1
1.043e+0, -1.831e-1
1.044e+0, -1.824e-1
1.045e+0, -1.817e-1
1.046e+0, -1.811e-1
1.047e+0, -1.804e-1
1.048e+0, -1.798e-1
1.049e+0, -1.791e-1
1.050e+0, -1.784e-1
1.051e+0, -1.777e-1
1.052e+0, -1.770e-1
1.053e+0, -1.763e-1
1.054e+0, -1.757e-1
1.055e+0, -1.749e-1
1.056e+0, -1.743e-1
1.057e+0, -1.736e-1
1.058e+0, -1.729e-1
1.059e+0, -1.722e-1
1.060e+0, -1.716e-1
1.061e+0, -1.709e-1
1.062e+0, -1.702e-1
1.063e+0, -1.695e-1
1.064e+0, -1.688e-1
1.065e+0, -1.682e-1
1.066e+0, -1.675e-1
1.067e+0, -1.668e-1
1.068e+0, -1.661e-1
1.069e+0, -1.654e-1
1.070e+0, -1.648e-1
1.071e+0, -1.641e-1
1.072e+0, -1.634e-1
1.073e+0, -1.627e-1
1.074e+0, -1.621e-1
1.075e+0, -1.614e-1
1.076e+0, -1.607e-1
1.077e+0, -1.600e-1
1.078e+0, -1.593e-1
1.079e+0, -1.587e-1
1.080e+0, -1.580e-1
1.081e+0, -1.573e-1
1.082e+0, -1.566e-1
1.083e+0, -1.559e-1
1.084e+0, -1.552e-1
1.085e+0, -1.545e-1
1.086e+0, -1.539e-1
1.087e+0, -1.532e-1
1.088e+0, -1.525e-1
1.089e+0, -1.518e-1
1.090e+0, -1.511e-1
1.091e+0, -1.504e-1
1.092e+0, -1.497e-1
1.093e+0, -1.491e-1
1.094e+0, -1.483e-1
1.095e+0, -1.476e-1
1.096e+0, -1.470e-1
1.097e+0, -1.463e-1
1.098e+0, -1.456e-1
1.099e+0, -1.449e-1
1.100e+0, -1.442e-1
1.101e+0, -1.435e-1
1.102e+0, -1.428e-1
1.103e+0, -1.421e-1
1.104e+0, -1.415e-1
1.105e+0, -1.408e-1
1.106e+0, -1.401e-1
1.107e+0, -1.394e-1
1.108e+0, -1.387e-1
1.109e+0, -1.380e-1
1.110e+0, -1.373e-1
1.111e+0, -1.366e-1
1.112e+0, -1.360e-1
1.113e+0, -1.353e-1
1.114e+0, -1.346e-1
1.115e+0, -1.339e-1
1.116e+0, -1.332e-1
1.117e+0, -1.325e-1
1.118e+0, -1.318e-1
1.119e+0, -1.311e-1
1.120e+0, -1.304e-1
1.121e+0, -1.297e-1
1.122e+0, -1.290e-1
1.123e+0, -1.284e-1
1.124e+0, -1.277e-1
1.125e+0, -1.269e-1
1.126e+0, -1.263e-1
1.127e+0, -1.256e-1
1.128e+0, -1.249e-1
1.129e+0, -1.242e-1
1.130e+0, -1.235e-1
1.131e+0, -1.229e-1
1.132e+0, -1.221e-1
1.133e+0, -1.215e-1
1.134e+0, -1.208e-1
1.135e+0, -1.200e-1
1.136e+0, -1.194e-1
1.137e+0, -1.187e-1
1.138e+0, -1.180e-1
1.139e+0, -1.173e-1
1.140e+0, -1.166e-1
1.141e+0, -1.159e-1
1.142e+0, -1.152e-1
1.143e+0, -1.145e-1
1.144e+0, -1.138e-1
1.145e+0, -1.131e-1
1.146e+0, -1.124e-1
1.147e+0, -1.117e-1
1.148e+0, -1.110e-1
1.149e+0, -1.103e-1
1.150e+0, -1.097e-1
1.151e+0, -1.089e-1
1.152e+0, -1.083e-1
1.153e+0, -1.075e-1
1.154e+0, -1.068e-1
1.155e+0, -1.061e-1
1.156e+0, -1.055e-1
1.157e+0, -1.048e-1
1.158e+0, -1.040e-1
1.159e+0, -1.034e-1
1.160e+0, -1.027e-1
1.161e+0, -1.019e-1
1.162e+0, -1.012e-1
1.163e+0, -1.005e-1
1.164e+0, -9.989e-2
1.165e+0, -9.915e-2
1.166e+0, -9.851e-2
1.167e+0, -9.779e-2
1.168e+0, -9.708e-2
1.169e+0, -9.643e-2
1.170e+0, -9.568e-2
1.171e+0, -9.500e-2
1.172e+0, -9.430e-2
1.173e+0, -9.356e-2
1.174e+0, -9.286e-2
1.175e+0, -9.217e-2
1.176e+0, -9.147e-2
1.177e+0, -9.077e-2
1.178e+0, -9.008e-2
1.179e+0, -8.937e-2
1.180e+0, -8.867e-2
1.181e+0, -8.796e-2
1.182e+0, -8.727e-2
1.183e+0, -8.661e-2
1.184e+0, -8.589e-2
1.185e+0, -8.519e-2
1.186e+0, -8.447e-2
1.187e+0, -8.381e-2
1.188e+0, -8.313e-2
1.189e+0, -8.242e-2
1.190e+0, -8.174e-2
1.191e+0, -8.101e-2
1.192e+0, -8.030e-2
1.193e+0, -7.961e-2
1.194e+0, -7.892e-2
1.195e+0, -7.820e-2
1.196e+0, -7.749e-2
1.197e+0, -7.683e-2
1.198e+0, -7.610e-2
1.199e+0, -7.539e-2
1.200e+0, -7.468e-2
1.201e+0, -7.396e-2
1.202e+0, -7.331e-2
1.203e+0, -7.258e-2
1.204e+0, -7.190e-2
1.205e+0, -7.117e-2
1.206e+0, -7.046e-2
1.207e+0, -6.978e-2
1.208e+0, -6.908e-2
1.209e+0, -6.841e-2
1.210e+0, -6.767e-2
1.211e+0, -6.700e-2
1.212e+0, -6.626e-2
1.213e+0, -6.556e-2
1.214e+0, -6.482e-2
1.215e+0, -6.412e-2
1.216e+0, -6.348e-2
1.217e+0, -6.274e-2
1.218e+0, -6.205e-2
1.219e+0, -6.132e-2
1.220e+0, -6.060e-2
1.221e+0, -5.995e-2
1.222e+0, -5.922e-2
1.223e+0, -5.856e-2
1.224e+0, -5.782e-2
1.225e+0, -5.712e-2
1.226e+0, -5.640e-2
1.227e+0, -5.572e-2
1.228e+0, -5.503e-2
1.229e+0, -5.429e-2
1.230e+0, -5.363e-2
1.231e+0, -5.290e-2
1.232e+0, -5.218e-2
1.233e+0, -5.147e-2
1.234e+0, -5.075e-2
1.235e+0, -5.010e-2
1.236e+0, -4.938e-2
1.237e+0, -4.867e-2
1.238e+0, -4.794e-2
1.239e+0, -4.724e-2
1.240e+0, -4.654e-2
1.241e+0, -4.583e-2
1.242e+0, -4.518e-2
1.243e+0, -4.446e-2
1.244e+0, -4.375e-2
1.245e+0, -4.303e-2
1.246e+0, -4.234e-2
1.247e+0, -4.165e-2
1.248e+0, -4.092e-2
1.249e+0, -4.029e-2
1.250e+0, -3.955e-2
1.251e+0, -3.886e-2
1.252e+0, -3.812e-2
1.253e+0, -3.742e-2
1.254e+0, -3.677e-2
1.255e+0, -3.603e-2
1.256e+0, -3.533e-2
1.257e+0, -3.457e-2
1.258e+0, -3.387e-2
1.259e+0, -3.318e-2
1.260e+0, -3.246e-2
1.261e+0, -3.178e-2
1.262e+0, -3.103e-2
1.263e+0, -3.037e-2
1.264e+0, -2.967e-2
1.265e+0, -2.898e-2
1.266e+0, -2.823e-2
1.267e+0, -2.756e-2
1.268e+0, -2.688e-2
1.269e+0, -2.614e-2
1.270e+0, -2.543e-2
1.271e+0, -2.472e-2
1.272e+0, -2.400e-2
1.273e+0, -2.334e-2
1.274e+0, -2.262e-2
1.275e+0, -2.189e-2
1.276e+0, -2.119e-2
1.277e+0, -2.050e-2
1.278e+0, -1.979e-2
1.279e+0, -1.907e-2
1.280e+0, -1.842e-2
1.281e+0, -1.765e-2
1.282e+0, -1.698e-2
1.283e+0, -1.628e-2
1.284e+0, -1.557e-2
1.285e+0, -1.483e-2
1.286e+0, -1.414e-2
1.287e+0, -1.346e-2
1.288e+0, -1.272e-2
1.289e+0, -1.206e-2
1.290e+0, -1.131e-2
1.291e+0, -1.063e-2
1.292e+0, -9.956e-3
1.293e+0, -9.231e-3
1.294e+0, -8.517e-3
1.295e+0, -7.796e-3
1.296e+0, -7.088e-3
1.297e+0, -6.409e-3
1.298e+0, -5.733e-3
1.299e+0, -5.047e-3
1.300e+0, -4.307e-3
1.301e+0, -3.629e-3
1.302e+0, -2.917e-3
1.303e+0, -2.214e-3
1.304e+0, -1.515e-3
1.305e+0, -7.952e-4
1.306e+0, -1.413e-4
1.307e+0, -2.107e-1
1.308e+0, -2.073e-1
1.309e+0, -2.085e-1
1.310e+0, -2.099e-1
1.311e+0, -2.113e-1
1.312e+0, -2.127e-1
1.313e+0, -2.140e-1
1.314e+0, -2.153e-1
1.315e+0, -2.165e-1
1.316e+0, -2.177e-1
1.317e+0, -2.188e-1
1.318e+0, -2.199e-1
1.319e+0, -2.211e-1
1.320e+0, -2.223e-1
1.321e+0, -2.235e-1
1.322e+0, -2.246e-1
1.323e+0, -2.256e-1
1.324e+0, -2.265e-1
1.325e+0, -2.274e-1
1.326e+0, -2.287e-1
1.327e+0, -2.302e-1
1.328e+0, -2.318e-1
1.329e+0, -2.334e-1
1.330e+0, -2.349e-1
1.331e+0, -2.360e-1
1.332e+0, -2.365e-1
1.333e+0, -2.366e-1
1.334e+0, -2.369e-1
1.335e+0, -2.373e-1
1.336e+0, -2.378e-1
1.337e+0, -2.385e-1
1.338e+0, -2.394e-1
1.339e+0, -2.405e-1
1.340e+0, -2.418e-1
1.341e+0, -2.438e-1
1.342e+0, -2.459e-1
1.343e+0, -2.475e-1
1.344e+0, -2.491e-1
1.345e+0, -2.516e-1
1.346e+0, -2.535e-1
1.347e+0, -2.534e-1
1.348e+0, -2.521e-1
1.349e+0, -2.521e-1
1.350e+0, -2.533e-1
1.351e+0, -2.549e-1
1.352e+0, -2.565e-1
1.353e+0, -2.574e-1
1.354e+0, -2.581e-1
1.355e+0, -2.588e-1
1.356e+0, -2.595e-1
1.357e+0, -2.602e-1
1.358e+0, -2.608e-1
1.359e+0, -2.616e-1
1.360e+0, -2.624e-1
1.361e+0, -2.634e-1
1.362e+0, -2.643e-1
1.363e+0, -2.653e-1
1.364e+0, -2.664e-1
1.365e+0, -2.673e-1
1.366e+0, -2.683e-1
1.367e+0, -2.692e-1
1.368e+0, -2.701e-1
1.369e+0, -2.710e-1
1.370e+0, -2.718e-1
1.371e+0, -2.727e-1
1.372e+0, -2.735e-1
1.373e+0, -2.743e-1
1.374e+0, -2.751e-1
1.375e+0, -2.758e-1
1.376e+0, -2.765e-1
1.377e+0, -2.770e-1
1.378e+0, -2.774e-1
1.379e+0, -2.777e-1
1.380e+0, -2.779e-1
1.381e+0, -2.782e-1
1.382e+0, -2.785e-1
1.383e+0, -2.789e-1
1.384e+0, -2.793e-1
1.385e+0, -2.799e-1
1.386e+0, -2.805e-1
1.387e+0, -2.811e-1
1.388e+0, -2.817e-1
1.389e+0, -2.824e-1
1.390e+0, -2.831e-1
1.391e+0, -2.838e-1
1.392e+0, -2.845e-1
1.393e+0, -2.852e-1
1.394e+0, -2.859e-1
1.395e+0, -2.867e-1
1.396e+0, -2.874e-1
1.397e+0, -2.882e-1
1.398e+0, -2.889e-1
1.399e+0, -2.897e-1
1.400e+0, -2.905e-1
1.401e+0, -2.912e-1
1.402e+0, -2.920e-1
1.403e+0, -2.927e-1
1.404e+0, -2.935e-1
1.405e+0, -2.943e-1
1.406e+0, -2.950e-1
1.407e+0, -2.958e-1
1.408e+0, -2.965e-1
1.409e+0, -2.974e-1
1.410e+0, -2.981e-1
1.411e+0, -2.989e-1
1.412e+0, -2.996e-1
1.413e+0, -3.004e-1
1.414e+0, -3.012e-1
1.415e+0, -3.019e-1
1.416e+0, -3.027e-1
1.417e+0, -3.035e-1
1.418e+0, -3.042e-1
1.419e+0, -3.050e-1
1.420e+0, -3.058e-1
1.421e+0, -3.066e-1
1.422e+0, -3.073e-1
1.423e+0, -3.081e-1
1.424e+0, -3.088e-1
1.425e+0, -3.096e-1
1.426e+0, -3.104e-1
1.427e+0, -3.112e-1
1.428e+0, -3.120e-1
1.429e+0, -3.127e-1
1.430e+0, -3.135e-1
1.431e+0, -3.143e-1
1.432e+0, -3.150e-1
1.433e+0, -3.158e-1
1.434e+0, -3.165e-1
1.435e+0, -3.173e-1
1.436e+0, -3.181e-1
1.437e+0, -3.188e-1
1.438e+0, -3.196e-1
1.439e+0, -3.203e-1
1.440e+0, -3.211e-1
1.441e+0, -3.218e-1
1.442e+0, -3.227e-1
1.443e+0, -3.234e-1
1.444e+0, -3.242e-1
1.445e+0, -3.249e-1
1.446e+0, -3.257e-1
1.447e+0, -3.265e-1
1.448e+0, -3.272e-1
1.449e+0, -3.280e-1
1.450e+0, -3.287e-1
1.451e+0, -3.295e-1
1.452e+0, -3.303e-1
1.453e+0, -3.310e-1
1.454e+0, -3.318e-1
1.455e+0, -3.325e-1
1.456e+0, -3.333e-1
1.457e+0, -3.340e-1
1.458e+0, -3.348e-1
1.459e+0, -3.355e-1
1.460e+0, -3.363e-1
1.461e+0, -3.371e-1
1.462e+0, -3.378e-1
1.463e+0, -3.386e-1
1.464e+0, -3.393e-1
1.465e+0, -3.401e-1
1.466e+0, -3.409e-1
1.467e+0, -3.416e-1
1.468e+0, -3.424e-1
1.469e+0, -3.431e-1
1.470e+0, -3.438e-1
1.471e+0, -3.446e-1
1.472e+0, -3.454e-1
1.473e+0, -3.461e-1
1.474e+0, -3.469e-1
1.475e+0, -3.476e-1
1.476e+0, -3.483e-1
1.477e+0, -3.491e-1
1.478e+0, -3.499e-1
1.479e+0, -3.506e-1
1.480e+0, -3.514e-1
1.481e+0, -3.521e-1
1.482e+0, -3.529e-1
1.483e+0, -3.536e-1
1.484e+0, -3.543e-1
1.485e+0, -3.551e-1
1.486e+0, -3.559e-1
1.487e+0, -3.566e-1
1.488e+0, -3.573e-1
1.489e+0, -3.581e-1
1.490e+0, -3.588e-1
1.491e+0, -3.595e-1
1.492e+0, -3.603e-1
1.493e+0, -3.610e-1
1.494e+0, -3.618e-1
1.495e+0, -3.625e-1
1.496e+0, -3.632e-1
1.497e+0, -3.639e-1
1.498e+0, -3.647e-1
1.499e+0, -3.655e-1
1.500e+0, -3.662e-1
1.501e+0, -3.670e-1
1.502e+0, -3.677e-1
1.503e+0, -3.684e-1
1.504e+0, -3.692e-1
1.505e+0, -3.699e-1
1.506e+0, -3.707e-1
1.507e+0, -3.714e-1
1.508e+0, -3.721e-1
1.509e+0, -3.729e-1
1.510e+0, -3.736e-1
1.511e+0, -3.743e-1
1.512e+0, -3.750e-1
1.513e+0, -3.758e-1
1.514e+0, -3.765e-1
1.515e+0, -3.773e-1
1.516e+0, -3.780e-1
1.517e+0, -3.787e-1
1.518e+0, -3.795e-1
1.519e+0, -3.802e-1
1.520e+0, -3.810e-1
1.521e+0, -3.817e-1
1.522e+0, -3.824e-1
1.523e+0, -3.831e-1
1.524e+0, -3.838e-1
1.525e+0, -3.846e-1
1.526e+0, -3.853e-1
1.527e+0, -3.860e-1
1.528e+0, -3.868e-1
1.529e+0, -3.875e-1
1.530e+0, -3.882e-1
1.531e+0, -3.890e-1
1.532e+0, -3.897e-1
1.533e+0, -3.904e-1
1.534e+0, -3.912e-1
1.535e+0, -3.919e-1
1.536e+0, -3.926e-1
1.537e+0, -3.934e-1
1.538e+0, -3.940e-1
1.539e+0, -3.948e-1
1.540e+0, -3.955e-1
1.541e+0, -3.962e-1
1.542e+0, -3.970e-1
1.543e+0, -3.976e-1
1.544e+0, -3.984e-1
1.545e+0, -3.991e-1
1.546e+0, -3.998e-1
1.547e+0, -4.005e-1
1.548e+0, -4.012e-1
1.549e+0, -4.019e-1
1.550e+0, -4.027e-1
1.551e+0, -4.034e-1
1.552e+0, -4.041e-1
1.553e+0, -4.048e-1
1.554e+0, -4.055e-1
1.555e+0, -4.063e-1
1.556e+0, -4.070e-1
1.557e+0, -4.077e-1
1.558e+0, -4.085e-1
1.559e+0, -4.092e-1
1.560e+0, -4.099e-1
1.561e+0, -4.106e-1
1.562e+0, -4.113e-1
1.563e+0, -4.120e-1
1.564e+0, -4.127e-1
1.565e+0, -4.135e-1
1.566e+0, -4.141e-1
1.567e+0, -4.149e-1
1.568e+0, -4.156e-1
1.569e+0, -4.163e-1
1.570e+0, -4.170e-1
1.571e+0, -4.177e-1
1.572e+0, -4.184e-1
1.573e+0, -4.191e-1
1.574e+0, -4.198e-1
1.575e+0, -4.205e-1
1.576e+0, -4.212e-1
1.577e+0, -4.220e-1
1.578e+0, -4.227e-1
1.579e+0, -4.234e-1
1.580e+0, -4.241e-1
1.581e+0, -4.248e-1
1.582e+0, -4.255e-1
1.583e+0, -4.262e-1
1.584e+0, -4.270e-1
1.585e+0, -4.276e-1
1.586e+0, -4.284e-1
1.587e+0, -4.291e-1
1.588e+0, -4.298e-1
1.589e+0, -4.305e-1
1.590e+0, -4.312e-1
1.591e+0, -4.319e-1
1.592e+0, -4.326e-1
1.593e+0, -4.333e-1
1.594e+0, -4.340e-1
1.595e+0, -4.347e-1
1.596e+0, -4.354e-1
1.597e+0, -4.361e-1
1.598e+0, -4.368e-1
1.599e+0, -4.375e-1
1.600e+0, -4.381e-1
1.601e+0, -4.388e-1
1.602e+0, -4.396e-1
1.603e+0, -4.403e-1
1.604e+0, -4.410e-1
1.605e+0, -4.417e-1
1.606e+0, -4.423e-1
1.607e+0, -4.430e-1
1.608e+0, -4.437e-1
1.609e+0, -4.444e-1
1.610e+0, -4.452e-1
1.611e+0, -4.458e-1
1.612e+0, -4.465e-1
1.613e+0, -4.473e-1
1.614e+0, -4.479e-1
1.615e+0, -4.486e-1
1.616e+0, -4.493e-1
1.617e+0, -4.500e-1
1.618e+0, -4.507e-1
1.619e+0, -4.514e-1
1.620e+0, -4.521e-1
1.621e+0, -4.528e-1
1.622e+0, -4.535e-1
1.623e+0, -4.542e-1
1.624e+0, -4.549e-1
1.625e+0, -4.555e-1
1.626e+0, -4.562e-1
1.627e+0, -4.570e-1
1.628e+0, -4.577e-1
1.629e+0, -4.584e-1
1.630e+0, -4.590e-1
1.631e+0, -4.597e-1
1.632e+0, -4.604e-1
1.633e+0, -4.611e-1
1.634e+0, -4.618e-1
1.635e+0, -4.624e-1
1.636e+0, -4.632e-1
1.637e+0, -4.638e-1
1.638e+0, -4.645e-1
1.639e+0, -4.652e-1
1.640e+0, -4.659e-1
1.641e+0, -4.666e-1
1.642e+0, -4.673e-1
1.643e+0, -4.680e-1
1.644e+0, -4.686e-1
1.645e+0, -4.693e-1
1.646e+0, -4.700e-1
1.647e+0, -4.707e-1
1.648e+0, -4.714e-1
1.649e+0, -4.720e-1
1.650e+0, -4.727e-1
1.651e+0, -4.734e-1
1.652e+0, -4.741e-1
1.653e+0, -4.748e-1
1.654e+0, -4.755e-1
1.655e+0, -4.762e-1
1.656e+0, -4.768e-1
1.657e+0, -4.775e-1
1.658e+0, -4.781e-1
1.659e+0, -4.788e-1
1.660e+0, -4.796e-1
1.661e+0, -4.802e-1
1.662e+0, -4.809e-1
1.663e+0, -4.815e-1
1.664e+0, -4.822e-1
1.665e+0, -4.829e-1
1.666e+0, -4.836e-1
1.667e+0, -4.843e-1
1.668e+0, -4.850e-1
1.669e+0, -4.856e-1
1.670e+0, -4.863e-1
1.671e+0, -4.870e-1
1.672e+0, -4.876e-1
1.673e+0, -4.883e-1
1.674e+0, -4.890e-1
1.675e+0, -4.897e-1
1.676e+0, -4.904e-1
1.677e+0, -4.910e-1
1.678e+0, -4.917e-1
1.679e+0, -4.924e-1
1.680e+0, -4.931e-1
1.681e+0, -4.937e-1
1.682e+0, -4.944e-1
1.683e+0, -4.950e-1
1.684e+0, -4.957e-1
1.685e+0, -4.964e-1
1.686e+0, -4.971e-1
1.687e+0, -4.977e-1
1.688e+0, -4.984e-1
1.689e+0, -4.991e-1
1.690e+0, -4.998e-1
1.691e+0, -5.004e-1
1.692e+0, -5.011e-1
1.693e+0, -5.018e-1
1.694e+0, -5.024e-1
1.695e+0, -5.031e-1
1.696e+0, -5.037e-1
1.697e+0, -5.044e-1
1.698e+0, -5.051e-1
1.699e+0, -5.058e-1
1.700e+0, -5.064e-1
1.701e+0, -5.071e-1
1.702e+0, -5.078e-1
1.703e+0, -5.084e-1
1.704e+0, -5.091e-1
1.705e+0, -5.097e-1
1.706e+0, -5.104e-1
1.707e+0, -5.111e-1
1.708e+0, -5.117e-1
1.709e+0, -5.124e-1
1.710e+0, -5.131e-1
1.711e+0, -5.137e-1
1.712e+0, -5.144e-1
1.713e+0, -5.150e-1
1.714e+0, -5.157e-1
1.715e+0, -5.163e-1
1.716e+0, -5.170e-1
1.717e+0, -5.176e-1
1.718e+0, -5.183e-1
1.719e+0, -5.190e-1
1.720e+0, -5.196e-1
1.721e+0, -5.203e-1
1.722e+0, -5.209e-1
1.723e+0, -5.216e-1
1.724e+0, -5.222e-1
1.725e+0, -5.229e-1
1.726e+0, -5.236e-1
1.727e+0, -5.242e-1
1.728e+0, -5.249e-1
1.729e+0, -5.255e-1
1.730e+0, -5.262e-1
1.731e+0, -5.268e-1
1.732e+0, -5.275e-1
1.733e+0, -5.282e-1
1.734e+0, -5.288e-1
1.735e+0, -5.294e-1
1.736e+0, -5.301e-1
1.737e+0, -5.307e-1
1.738e+0, -5.314e-1
1.739e+0, -5.320e-1
1.740e+0, -5.327e-1
1.741e+0, -5.334e-1
1.742e+0, -5.340e-1
1.743e+0, -5.346e-1
1.744e+0, -5.353e-1
1.745e+0, -5.360e-1
1.746e+0, -5.366e-1
1.747e+0, -5.373e-1
1.748e+0, -5.379e-1
1.749e+0, -5.386e-1
1.750e+0, -5.393e-1
1.751e+0, -5.399e-1
1.752e+0, -5.406e-1
1.753e+0, -5.412e-1
1.754e+0, -5.418e-1
1.755e+0, -5.425e-1
1.756e+0, -5.431e-1
1.757e+0, -5.437e-1
1.758e+0, -5.444e-1
1.759e+0, -5.451e-1
1.760e+0, -5.457e-1
1.761e+0, -5.463e-1
1.762e+0, -5.470e-1
1.763e+0, -5.476e-1
1.764e+0, -5.483e-1
1.765e+0, -5.489e-1
1.766e+0, -5.496e-1
1.767e+0, -5.502e-1
1.768e+0, -5.508e-1
1.769e+0, -5.515e-1
1.770e+0, -5.521e-1
1.771e+0, -5.528e-1
1.772e+0, -5.534e-1
1.773e+0, -5.541e-1
1.774e+0, -5.547e-1
1.775e+0, -5.553e-1
1.776e+0, -5.559e-1
1.777e+0, -5.566e-1
1.778e+0, -5.573e-1
1.779e+0, -5.579e-1
1.780e+0, -5.585e-1
1.781e+0, -5.592e-1
1.782e+0, -5.598e-1
1.783e+0, -5.605e-1
1.784e+0, -5.610e-1
1.785e+0, -5.617e-1
1.786e+0, -5.623e-1
1.787e+0, -5.630e-1
1.788e+0, -5.636e-1
1.789e+0, -5.643e-1
1.790e+0, -5.649e-1
1.791e+0, -5.655e-1
1.792e+0, -5.662e-1
1.793e+0, -5.668e-1
1.794e+0, -5.674e-1
1.795e+0, -5.680e-1
1.796e+0, -5.687e-1
1.797e+0, -5.693e-1
1.798e+0, -5.700e-1
1.799e+0, -5.707e-1
1.800e+0, -5.713e-1
1.801e+0, -5.719e-1
1.802e+0, -5.726e-1
1.803e+0, -5.732e-1
1.804e+0, -5.738e-1
1.805e+0, -5.744e-1
1.806e+0, -5.751e-1
1.807e+0, -5.757e-1
1.808e+0, -5.763e-1
1.809e+0, -5.770e-1
1.810e+0, -5.776e-1
1.811e+0, -5.783e-1
1.812e+0, -5.789e-1
1.813e+0, -5.795e-1
1.814e+0, -5.801e-1
1.815e+0, -5.807e-1
1.816e+0, -5.814e-1
1.817e+0, -5.820e-1
1.818e+0, -5.827e-1
1.819e+0, -5.833e-1
1.820e+0, -5.839e-1
1.821e+0, -5.845e-1
1.822e+0, -5.852e-1
1.823e+0, -5.858e-1
1.824e+0, -5.864e-1
1.825e+0, -5.871e-1
1.826e+0, -5.877e-1
1.827e+0, -5.883e-1
1.828e+0, -5.889e-1
1.829e+0, -5.896e-1
1.830e+0, -5.902e-1
1.831e+0, -5.908e-1
1.832e+0, -5.915e-1
1.833e+0, -5.921e-1
1.834e+0, -5.927e-1
1.835e+0, -5.933e-1
1.836e+0, -5.939e-1
1.837e+0, -5.946e-1
1.838e+0, -5.952e-1
1.839e+0, -5.958e-1
1.840e+0, -5.964e-1
1.841e+0, -5.970e-1
1.842e+0, -5.977e-1
1.843e+0, -5.983e-1
1.844e+0, -5.989e-1
1.845e+0, -5.995e-1
1.846e+0, -6.001e-1
1.847e+0, -6.008e-1
1.848e+0, -6.014e-1
1.849e+0, -6.020e-1
1.850e+0, -6.026e-1
1.851e+0, -6.033e-1
1.852e+0, -6.039e-1
1.853e+0, -6.045e-1
1.854e+0, -6.051e-1
1.855e+0, -6.057e-1
1.856e+0, -6.064e-1
1.857e+0, -6.070e-1
1.858e+0, -6.076e-1
1.859e+0, -6.082e-1
1.860e+0, -6.088e-1
1.861e+0, -6.095e-1
1.862e+0, -6.101e-1
1.863e+0, -6.107e-1
1.864e+0, -6.113e-1
1.865e+0, -6.119e-1
1.866e+0, -6.126e-1
1.867e+0, -6.132e-1
1.868e+0, -6.138e-1
1.869e+0, -6.144e-1
1.870e+0, -6.151e-1
1.871e+0, -6.157e-1
1.872e+0, -6.162e-1
1.873e+0, -6.169e-1
1.874e+0, -6.175e-1
1.875e+0, -6.181e-1
1.876e+0, -6.187e-1
1.877e+0, -6.193e-1
1.878e+0, -6.199e-1
1.879e+0, -6.205e-1
1.880e+0, -6.211e-1
1.881e+0, -6.218e-1
1.882e+0, -6.224e-1
1.883e+0, -6.230e-1
1.884e+0, -6.236e-1
1.885e+0, -6.242e-1
1.886e+0, -6.248e-1
1.887e+0, -6.255e-1
1.888e+0, -6.261e-1
1.889e+0, -6.267e-1
1.890e+0, -6.273e-1
1.891e+0, -6.279e-1
1.892e+0, -6.285e-1
1.893e+0, -6.291e-1
1.894e+0, -6.297e-1
1.895e+0, -6.303e-1
1.896e+0, -6.310e-1
1.897e+0, -6.315e-1
1.898e+0, -6.322e-1
1.899e+0, -6.327e-1
1.900e+0, -6.334e-1
1.901e+0, -6.340e-1
1.902e+0, -6.346e-1
1.903e+0, -6.352e-1
1.904e+0, -6.358e-1
1.905e+0, -6.364e-1
1.906e+0, -6.370e-1
1.907e+0, -6.376e-1
1.908e+0, -6.382e-1
1.909e+0, -6.388e-1
1.910e+0, -6.394e-1
1.911e+0, -6.400e-1
1.912e+0, -6.406e-1
1.913e+0, -6.413e-1
1.914e+0, -6.418e-1
1.915e+0, -6.425e-1
1.916e+0, -6.431e-1
1.917e+0, -6.436e-1
1.918e+0, -6.443e-1
1.919e+0, -6.449e-1
1.920e+0, -6.455e-1
1.921e+0, -6.461e-1
1.922e+0, -6.467e-1
1.923e+0, -6.473e-1
1.924e+0, -6.479e-1
1.925e+0, -6.485e-1
1.926e+0, -6.491e-1
1.927e+0, -6.497e-1
1.928e+0, -6.503e-1
1.929e+0, -6.509e-1
1.930e+0, -6.515e-1
1.931e+0, -6.521e-1
1.932e+0, -6.527e-1
1.933e+0, -6.533e-1
1.934e+0, -6.539e-1
1.935e+0, -6.545e-1
1.936e+0, -6.551e-1
1.937e+0, -6.557e-1
1.938e+0, -6.563e-1
1.939e+0, -6.569e-1
1.940e+0, -6.575e-1
1.941e+0, -6.581e-1
1.942e+0, -6.587e-1
1.943e+0, -6.592e-1
1.944e+0, -6.598e-1
1.945e+0, -6.605e-1
1.946e+0, -6.611e-1
1.947e+0, -6.617e-1
1.948e+0, -6.623e-1
1.949e+0, -6.629e-1
1.950e+0, -6.634e-1
1.951e+0, -6.641e-1
1.952e+0, -6.646e-1
1.953e+0, -6.653e-1
1.954e+0, -6.658e-1
1.955e+0, -6.665e-1
1.956e+0, -6.670e-1
1.957e+0, -6.676e-1
1.958e+0, -6.682e-1
1.959e+0, -6.688e-1
1.960e+0, -6.694e-1
1.961e+0, -6.700e-1
1.962e+0, -6.706e-1
1.963e+0, -6.712e-1
1.964e+0, -6.718e-1
1.965e+0, -6.723e-1
1.966e+0, -6.729e-1
1.967e+0, -6.735e-1
1.968e+0, -6.741e-1
1.969e+0, -6.747e-1
1.970e+0, -6.753e-1
1.971e+0, -6.759e-1
1.972e+0, -6.765e-1
1.973e+0, -6.770e-1
1.974e+0, -6.776e-1
1.975e+0, -6.782e-1
1.976e+0, -6.788e-1
1.977e+0, -6.794e-1
1.978e+0, -6.800e-1
1.979e+0, -6.806e-1
1.980e+0, -6.812e-1
1.981e+0, -6.817e-1
1.982e+0, -6.823e-1
1.983e+0, -6.829e-1
1.984e+0, -6.835e-1
1.985e+0, -6.841e-1
1.986e+0, -6.847e-1
1.987e+0, -6.853e-1
1.988e+0, -6.859e-1
1.989e+0, -6.865e-1
1.990e+0, -6.870e-1
1.991e+0, -6.877e-1
1.992e+0, -6.882e-1
1.993e+0, -6.888e-1
1.994e+0, -6.893e-1
1.995e+0, -6.899e-1
1.996e+0, -6.905e-1
1.997e+0, -6.911e-1
1.998e+0, -6.917e-1
1.999e+0, -6.923e-1
2.000e+0, -6.929e-1
2.001e+0, -6.935e-1
2.002e+0, -6.940e-1
2.003e+0, -6.946e-1
2.004e+0, -6.952e-1
2.005e+0, -6.958e-1
2.006e+0, -6.964e-1
2.007e+0, -6.970e-1
2.008e+0, -6.975e-1
2.009e+0, -6.981e-1
2.010e+0, -6.987e-1
2.011e+0, -6.993e-1
2.012e+0, -6.999e-1
2.013e+0, -7.004e-1
2.014e+0, -7.010e-1
2.015e+0, -7.016e-1
2.016e+0, -7.022e-1
2.017e+0, -7.028e-1
2.018e+0, -7.034e-1
2.019e+0, -7.039e-1
2.020e+0, -7.045e-1
2.021e+0, -7.051e-1
2.022e+0, -7.056e-1
2.023e+0, -7.062e-1
2.024e+0, -7.068e-1
2.025e+0, -7.074e-1
2.026e+0, -7.080e-1
2.027e+0, -7.086e-1
2.028e+0, -7.092e-1
2.029e+0, -7.097e-1
2.030e+0, -7.103e-1
2.031e+0, -7.109e-1
2.032e+0, -7.114e-1
2.033e+0, -7.120e-1
2.034e+0, -7.126e-1
2.035e+0, -7.131e-1
2.036e+0, -7.137e-1
2.037e+0, -7.143e-1
2.038e+0, -7.149e-1
2.039e+0, -7.154e-1
2.040e+0, -7.160e-1
2.041e+0, -7.166e-1
2.042e+0, -7.172e-1
2.043e+0, -7.177e-1
2.044e+0, -7.183e-1
2.045e+0, -7.189e-1
2.046e+0, -7.195e-1
2.047e+0, -7.200e-1
2.048e+0, -7.206e-1
2.049e+0, -7.212e-1
2.050e+0, -7.218e-1
2.051e+0, -7.223e-1
2.052e+0, -7.229e-1
2.053e+0, -7.235e-1
2.054e+0, -7.241e-1
2.055e+0, -7.246e-1
2.056e+0, -7.252e-1
2.057e+0, -7.258e-1
2.058e+0, -7.263e-1
2.059e+0, -7.269e-1
2.060e+0, -7.275e-1
2.061e+0, -7.280e-1
2.062e+0, -7.286e-1
2.063e+0, -7.292e-1
2.064e+0, -7.298e-1
2.065e+0, -7.303e-1
2.066e+0, -7.309e-1
2.067e+0, -7.315e-1
2.068e+0, -7.320e-1
2.069e+0, -7.326e-1
2.070e+0, -7.332e-1
2.071e+0, -7.338e-1
2.072e+0, -7.343e-1
2.073e+0, -7.349e-1
2.074e+0, -7.354e-1
2.075e+0, -7.360e-1
2.076e+0, -7.366e-1
2.077e+0, -7.371e-1
2.078e+0, -7.377e-1
2.079e+0, -7.383e-1
2.080e+0, -7.388e-1
2.081e+0, -7.394e-1
2.082e+0, -7.400e-1
2.083e+0, -7.405e-1
2.084e+0, -7.411e-1
2.085e+0, -7.417e-1
2.086e+0, -7.422e-1
2.087e+0, -7.428e-1
2.088e+0, -7.434e-1
2.089e+0, -7.439e-1
2.090e+0, -7.445e-1
2.091e+0, -7.451e-1
2.092e+0, -7.456e-1
2.093e+0, -7.462e-1
2.094e+0, -7.467e-1
2.095e+0, -7.473e-1
2.096e+0, -7.479e-1
2.097e+0, -7.484e-1
2.098e+0, -7.490e-1
2.099e+0, -7.496e-1
2.100e+0, -7.501e-1
2.101e+0, -7.507e-1
2.102e+0, -7.512e-1
2.103e+0, -7.518e-1
2.104e+0, -7.523e-1
2.105e+0, -7.529e-1
2.106e+0, -7.535e-1
2.107e+0, -7.540e-1
2.108e+0, -7.546e-1
2.109e+0, -7.552e-1
2.110e+0, -7.557e-1
2.111e+0, -7.563e-1
2.112e+0, -7.568e-1
2.113e+0, -7.574e-1
2.114e+0, -7.580e-1
2.115e+0, -7.585e-1
2.116e+0, -7.591e-1
2.117e+0, -7.596e-1
2.118e+0, -7.602e-1
2.119e+0, -7.608e-1
2.120e+0, -7.613e-1
2.121e+0, -7.619e-1
2.122e+0, -7.624e-1
2.123e+0, -7.630e-1
2.124e+0, -7.636e-1
2.125e+0, -7.641e-1
2.126e+0, -7.647e-1
2.127e+0, -7.652e-1
2.128e+0, -7.658e-1
2.129e+0, -7.663e-1
2.130e+0, -7.669e-1
2.131e+0, -7.674e-1
2.132e+0, -7.680e-1
2.133e+0, -7.686e-1
2.134e+0, -7.691e-1
2.135e+0, -7.697e-1
2.136e+0, -7.702e-1
2.137e+0, -7.708e-1
2.138e+0, -7.714e-1
2.139e+0, -7.719e-1
2.140e+0, -7.725e-1
2.141e+0, -7.730e-1
2.142e+0, -7.736e-1
2.143e+0, -7.741e-1
2.144e+0, -7.746e-1
2.145e+0, -7.752e-1
2.146e+0, -7.758e-1
2.147e+0, -7.764e-1
2.148e+0, -7.769e-1
2.149e+0, -7.775e-1
2.150e+0, -7.780e-1
2.151e+0, -7.785e-1
2.152e+0, -7.791e-1
2.153e+0, -7.797e-1
2.154e+0, -7.802e-1
2.155e+0, -7.808e-1
2.156e+0, -7.813e-1
2.157e+0, -7.819e-1
2.158e+0, -7.824e-1
2.159e+0, -7.830e-1
2.160e+0, -7.835e-1
2.161e+0, -7.841e-1
2.162e+0, -7.846e-1
2.163e+0, -7.852e-1
2.164e+0, -7.857e-1
2.165e+0, -7.862e-1
2.166e+0, -7.868e-1
2.167e+0, -7.874e-1
2.168e+0, -7.879e-1
2.169e+0, -7.885e-1
2.170e+0, -7.890e-1
2.171e+0, -7.895e-1
2.172e+0, -7.901e-1
2.173e+0, -7.907e-1
2.174e+0, -7.912e-1
2.175e+0, -7.917e-1
2.176e+0, -7.923e-1
2.177e+0, -7.928e-1
2.178e+0, -7.934e-1
2.179e+0, -7.939e-1
2.180e+0, -7.945e-1
2.181e+0, -7.950e-1
2.182e+0, -7.956e-1
2.183e+0, -7.961e-1
2.184e+0, -7.966e-1
2.185e+0, -7.972e-1
2.186e+0, -7.978e-1
2.187e+0, -7.983e-1
2.188e+0, -7.989e-1
2.189e+0, -7.994e-1
2.190e+0, -7.999e-1
2.191e+0, -8.005e-1
2.192e+0, -8.010e-1
2.193e+0, -8.016e-1
2.194e+0, -8.021e-1
2.195e+0, -8.027e-1
2.196e+0, -8.032e-1
2.197e+0, -8.037e-1
2.198e+0, -8.043e-1
2.199e+0, -8.049e-1
2.200e+0, -8.054e-1
2.201e+0, -8.060e-1
2.202e+0, -8.065e-1
2.203e+0, -8.070e-1
2.204e+0, -8.076e-1
2.205e+0, -8.081e-1
2.206e+0, -8.087e-1
2.207e+0, -8.092e-1
2.208e+0, -8.097e-1
2.209e+0, -8.103e-1
2.210e+0, -8.108e-1
2.211e+0, -8.114e-1
2.212e+0, -8.119e-1
2.213e+0, -8.125e-1
2.214e+0, -8.130e-1
2.215e+0, -8.136e-1
2.216e+0, -8.141e-1
2.217e+0, -8.146e-1
2.218e+0, -8.152e-1
2.219e+0, -8.157e-1
2.220e+0, -8.162e-1
2.221e+0, -8.167e-1
2.222e+0, -8.173e-1
2.223e+0, -8.179e-1
2.224e+0, -8.184e-1
2.225e+0, -8.190e-1
2.226e+0, -8.195e-1
2.227e+0, -8.201e-1
2.228e+0, -8.206e-1
2.229e+0, -8.211e-1
2.230e+0, -8.217e-1
2.231e+0, -8.222e-1
2.232e+0, -8.228e-1
2.233e+0, -8.233e-1
2.234e+0, -8.238e-1
2.235e+0, -8.243e-1
2.236e+0, -8.249e-1
2.237e+0, -8.254e-1
2.238e+0, -8.259e-1
2.239e+0, -8.265e-1
2.240e+0, -8.270e-1
2.241e+0, -8.276e-1
2.242e+0, -8.281e-1
2.243e+0, -8.286e-1
2.244e+0, -8.291e-1
2.245e+0, -8.297e-1
2.246e+0, -8.302e-1
2.247e+0, -8.308e-1
2.248e+0, -8.313e-1
2.249e+0, -8.318e-1
2.250e+0, -8.323e-1
2.251e+0, -8.329e-1
2.252e+0, -8.335e-1
2.253e+0, -8.340e-1
2.254e+0, -8.345e-1
2.255e+0, -8.350e-1
2.256e+0, -8.356e-1
2.257e+0, -8.361e-1
2.258e+0, -8.366e-1
2.259e+0, -8.372e-1
2.260e+0, -8.377e-1
2.261e+0, -8.383e-1
2.262e+0, -8.388e-1
2.263e+0, -8.393e-1
2.264e+0, -8.399e-1
2.265e+0, -8.404e-1
2.266e+0, -8.409e-1
2.267e+0, -8.415e-1
2.268e+0, -8.420e-1
2.269e+0, -8.425e-1
2.270e+0, -8.430e-1
2.271e+0, -8.436e-1
2.272e+0, -8.441e-1
2.273e+0, -8.446e-1
2.274e+0, -8.452e-1
2.275e+0, -8.457e-1
2.276e+0, -8.463e-1
2.277e+0, -8.468e-1
2.278e+0, -8.473e-1
2.279e+0, -8.478e-1
2.280e+0, -8.484e-1
2.281e+0, -8.489e-1
2.282e+0, -8.494e-1
2.283e+0, -8.500e-1
2.284e+0, -8.505e-1
2.285e+0, -8.510e-1
2.286e+0, -8.516e-1
2.287e+0, -8.521e-1
2.288e+0, -8.526e-1
2.289e+0, -8.531e-1
2.290e+0, -8.537e-1
2.291e+0, -8.542e-1
2.292e+0, -8.547e-1
2.293e+0, -8.552e-1
2.294e+0, -8.558e-1
2.295e+0, -8.563e-1
2.296e+0, -8.568e-1
2.297e+0, -8.574e-1
2.298e+0, -8.579e-1
2.299e+0, -8.584e-1
2.300e+0, -8.590e-1
2.301e+0, -8.595e-1
2.302e+0, -8.600e-1
2.303e+0, -8.606e-1
2.304e+0, -8.611e-1
2.305e+0, -8.616e-1
2.306e+0, -8.621e-1
2.307e+0, -8.627e-1
2.308e+0, -8.632e-1
2.309e+0, -8.637e-1
2.310e+0, -8.642e-1
2.311e+0, -8.648e-1
2.312e+0, -8.653e-1
2.313e+0, -8.658e-1
2.314e+0, -8.663e-1
2.315e+0, -8.668e-1
2.316e+0, -8.674e-1
2.317e+0, -8.679e-1
2.318e+0, -8.684e-1
2.319e+0, -8.690e-1
2.320e+0, -8.695e-1
2.321e+0, -8.700e-1
2.322e+0, -8.705e-1
2.323e+0, -8.710e-1
2.324e+0, -8.716e-1
2.325e+0, -8.721e-1
2.326e+0, -8.726e-1
2.327e+0, -8.731e-1
2.328e+0, -8.737e-1
2.329e+0, -8.742e-1
2.330e+0, -8.747e-1
2.331e+0, -8.753e-1
2.332e+0, -8.757e-1
2.333e+0, -8.763e-1
2.334e+0, -8.768e-1
2.335e+0, -8.773e-1
2.336e+0, -8.779e-1
2.337e+0, -8.784e-1
2.338e+0, -8.789e-1
2.339e+0, -8.794e-1
2.340e+0, -8.799e-1
2.341e+0, -8.805e-1
2.342e+0, -8.810e-1
2.343e+0, -8.815e-1
2.344e+0, -8.820e-1
2.345e+0, -8.826e-1
2.346e+0, -8.831e-1
2.347e+0, -8.836e-1
2.348e+0, -8.841e-1
2.349e+0, -8.846e-1
2.350e+0, -8.852e-1
2.351e+0, -8.857e-1
2.352e+0, -8.862e-1
2.353e+0, -8.867e-1
2.354e+0, -8.872e-1
2.355e+0, -8.878e-1
2.356e+0, -8.883e-1
2.357e+0, -8.888e-1
2.358e+0, -8.893e-1
2.359e+0, -8.898e-1
2.360e+0, -8.903e-1
2.361e+0, -8.908e-1
2.362e+0, -8.914e-1
2.363e+0, -8.919e-1
2.364e+0, -8.924e-1
2.365e+0, -8.929e-1
2.366e+0, -8.934e-1
2.367e+0, -8.940e-1
2.368e+0, -8.945e-1
2.369e+0, -8.951e-1
2.370e+0, -8.955e-1
2.371e+0, -8.961e-1
2.372e+0, -8.966e-1
2.373e+0, -8.971e-1
2.374e+0, -8.976e-1
2.375e+0, -8.981e-1
2.376e+0, -8.987e-1
2.377e+0, -8.991e-1
2.378e+0, -8.997e-1
2.379e+0, -9.002e-1
2.380e+0, -9.007e-1
2.381e+0, -9.012e-1
2.382e+0, -9.018e-1
2.383e+0, -9.023e-1
2.384e+0, -9.028e-1
2.385e+0, -9.033e-1
2.386e+0, -9.038e-1
2.387e+0, -9.043e-1
2.388e+0, -9.049e-1
2.389e+0, -9.053e-1
2.390e+0, -9.059e-1
2.391e+0, -9.064e-1
2.392e+0, -9.069e-1
2.393e+0, -9.074e-1
2.394e+0, -9.079e-1
2.395e+0, -9.084e-1
2.396e+0, -9.089e-1
2.397e+0, -9.094e-1
2.398e+0, -9.099e-1
2.399e+0, -9.105e-1
2.400e+0, -9.110e-1
2.401e+0, -9.115e-1
2.402e+0, -9.120e-1
2.403e+0, -9.125e-1
2.404e+0, -9.131e-1
2.405e+0, -9.135e-1
2.406e+0, -9.140e-1
2.407e+0, -9.146e-1
2.408e+0, -9.151e-1
2.409e+0, -9.156e-1
2.410e+0, -9.161e-1
2.411e+0, -9.167e-1
2.412e+0, -9.171e-1
2.413e+0, -9.177e-1
2.414e+0, -9.182e-1
2.415e+0, -9.187e-1
2.416e+0, -9.192e-1
2.417e+0, -9.197e-1
2.418e+0, -9.203e-1
2.419e+0, -9.207e-1
2.420e+0, -9.213e-1
2.421e+0, -9.218e-1
2.422e+0, -9.222e-1
2.423e+0, -9.228e-1
2.424e+0, -9.233e-1
2.425e+0, -9.238e-1
2.426e+0, -9.243e-1
2.427e+0, -9.249e-1
2.428e+0, -9.254e-1
2.429e+0, -9.259e-1
2.430e+0, -9.264e-1
2.431e+0, -9.269e-1
2.432e+0, -9.274e-1
2.433e+0, -9.279e-1
2.434e+0, -9.284e-1
2.435e+0, -9.290e-1
2.436e+0, -9.294e-1
2.437e+0, -9.300e-1
2.438e+0, -9.304e-1
2.439e+0, -9.310e-1
2.440e+0, -9.315e-1
2.441e+0, -9.320e-1
2.442e+0, -9.325e-1
2.443e+0, -9.330e-1
2.444e+0, -9.335e-1
2.445e+0, -9.340e-1
2.446e+0, -9.345e-1
2.447e+0, -9.350e-1
2.448e+0, -9.356e-1
2.449e+0, -9.361e-1
2.450e+0, -9.366e-1
2.451e+0, -9.371e-1
2.452e+0, -9.376e-1
2.453e+0, -9.381e-1
2.454e+0, -9.387e-1
2.455e+0, -9.391e-1
2.456e+0, -9.396e-1
2.457e+0, -9.401e-1
2.458e+0, -9.406e-1
2.459e+0, -9.412e-1
2.460e+0, -9.417e-1
2.461e+0, -9.422e-1
2.462e+0, -9.426e-1
2.463e+0, -9.432e-1
2.464e+0, -9.437e-1
2.465e+0, -9.442e-1
2.466e+0, -9.447e-1
2.467e+0, -9.452e-1
2.468e+0, -9.457e-1
2.469e+0, -9.462e-1
2.470e+0, -9.467e-1
2.471e+0, -9.472e-1
2.472e+0, -9.477e-1
2.473e+0, -9.483e-1
2.474e+0, -9.487e-1
2.475e+0, -9.493e-1
2.476e+0, -9.497e-1
2.477e+0, -9.502e-1
2.478e+0, -9.508e-1
2.479e+0, -9.513e-1
2.480e+0, -9.518e-1
2.481e+0, -9.522e-1
2.482e+0, -9.528e-1
2.483e+0, -9.533e-1
2.484e+0, -9.538e-1
2.485e+0, -9.543e-1
2.486e+0, -9.548e-1
2.487e+0, -9.553e-1
2.488e+0, -9.558e-1
2.489e+0, -9.563e-1
2.490e+0, -9.568e-1
2.491e+0, -9.573e-1
2.492e+0, -9.578e-1
2.493e+0, -9.583e-1
2.494e+0, -9.588e-1
2.495e+0, -9.593e-1
2.496e+0, -9.598e-1
2.497e+0, -9.603e-1
2.498e+0, -9.608e-1
2.499e+0, -9.613e-1
2.500e+0, -9.619e-1
2.501e+0, -9.624e-1
2.502e+0, -9.629e-1
2.503e+0, -9.634e-1
2.504e+0, -9.639e-1
2.505e+0, -9.644e-1
2.506e+0, -9.649e-1
2.507e+0, -9.654e-1
2.508e+0, -9.659e-1
2.509e+0, -9.664e-1
2.510e+0, -9.669e-1
2.511e+0, -9.674e-1
2.512e+0, -9.679e-1
2.513e+0, -9.684e-1
2.514e+0, -9.689e-1
2.515e+0, -9.694e-1
2.516e+0, -9.699e-1
2.517e+0, -9.704e-1
2.518e+0, -9.709e-1
2.519e+0, -9.714e-1
2.520e+0, -9.719e-1
2.521e+0, -9.724e-1
2.522e+0, -9.729e-1
2.523e+0, -9.734e-1
2.524e+0, -9.739e-1
2.525e+0, -9.744e-1
2.526e+0, -9.749e-1
2.527e+0, -9.754e-1
2.528e+0, -9.759e-1
2.529e+0, -9.764e-1
2.530e+0, -9.769e-1
2.531e+0, -9.774e-1
2.532e+0, -9.779e-1
2.533e+0, -9.784e-1
2.534e+0, -9.790e-1
2.535e+0, -9.794e-1
2.536e+0, -9.799e-1
2.537e+0, -9.804e-1
2.538e+0, -9.809e-1
2.539e+0, -9.814e-1
2.540e+0, -9.819e-1
2.541e+0, -9.824e-1
2.542e+0, -9.829e-1
2.543e+0, -9.834e-1
2.544e+0, -9.839e-1
2.545e+0, -9.844e-1
2.546e+0, -9.849e-1
2.547e+0, -9.854e-1
2.548e+0, -9.859e-1
2.549e+0, -9.863e-1
2.550e+0, -9.868e-1
2.551e+0, -9.873e-1
2.552e+0, -9.878e-1
2.553e+0, -9.884e-1
2.554e+0, -9.888e-1
2.555e+0, -9.893e-1
2.556e+0, -9.898e-1
2.557e+0, -9.903e-1
2.558e+0, -9.909e-1
2.559e+0, -9.913e-1
2.560e+0, -9.918e-1
2.561e+0, -9.923e-1
2.562e+0, -9.928e-1
2.563e+0, -9.933e-1
2.564e+0, -9.938e-1
2.565e+0, -9.943e-1
2.566e+0, -9.948e-1
2.567e+0, -9.953e-1
2.568e+0, -9.958e-1
2.569e+0, -9.963e-1
2.570e+0, -9.968e-1
2.571e+0, -9.973e-1
2.572e+0, -9.978e-1
2.573e+0, -9.983e-1
2.574e+0, -9.988e-1
2.575e+0, -9.993e-1
2.576e+0, -9.998e-1
2.577e+0, -7.503e-1
2.578e+0, -7.636e-1
2.579e+0, -7.695e-1
2.580e+0, -7.726e-1
2.581e+0, -7.752e-1
2.582e+0, -7.778e-1
2.583e+0, -7.791e-1
2.584e+0, -7.797e-1
2.585e+0, -7.799e-1
2.586e+0, -7.799e-1
2.587e+0, -7.798e-1
2.588e+0, -7.795e-1
2.589e+0, -7.792e-1
2.590e+0, -7.788e-1
2.591e+0, -7.784e-1
2.592e+0, -7.780e-1
2.593e+0, -7.775e-1
2.594e+0, -7.769e-1
2.595e+0, -7.764e-1
2.596e+0, -7.759e-1
2.597e+0, -7.754e-1
2.598e+0, -7.748e-1
2.599e+0, -7.743e-1
2.600e+0, -7.737e-1
2.601e+0, -7.731e-1
2.602e+0, -7.726e-1
2.603e+0, -7.720e-1
2.604e+0, -7.714e-1
2.605e+0, -7.708e-1
2.606e+0, -7.702e-1
2.607e+0, -7.696e-1
2.608e+0, -7.689e-1
2.609e+0, -7.683e-1
2.610e+0, -7.677e-1
2.611e+0, -7.671e-1
2.612e+0, -7.665e-1
2.613e+0, -7.659e-1
2.614e+0, -7.652e-1
2.615e+0, -7.646e-1
2.616e+0, -7.639e-1
2.617e+0, -7.633e-1
2.618e+0, -7.627e-1
2.619e+0, -7.620e-1
2.620e+0, -7.613e-1
2.621e+0, -7.606e-1
2.622e+0, -7.599e-1
2.623e+0, -7.592e-1
2.624e+0, -7.585e-1
2.625e+0, -7.578e-1
2.626e+0, -7.571e-1
2.627e+0, -7.563e-1
2.628e+0, -7.556e-1
2.629e+0, -7.549e-1
2.630e+0, -7.543e-1
2.631e+0, -7.535e-1
2.632e+0, -7.529e-1
2.633e+0, -7.522e-1
2.634e+0, -7.515e-1
2.635e+0, -7.509e-1
2.636e+0, -7.503e-1
2.637e+0, -7.500e-1
2.638e+0, -7.496e-1
2.639e+0, -7.493e-1
2.640e+0, -7.489e-1
2.641e+0, -7.485e-1
2.642e+0, -7.481e-1
2.643e+0, -7.475e-1
2.644e+0, -7.470e-1
2.645e+0, -7.463e-1
2.646e+0, -7.456e-1
2.647e+0, -7.449e-1
2.648e+0, -7.440e-1
2.649e+0, -7.431e-1
2.650e+0, -7.419e-1
2.651e+0, -7.406e-1
2.652e+0, -7.389e-1
2.653e+0, -7.372e-1
2.654e+0, -7.356e-1
2.655e+0, -7.343e-1
2.656e+0, -7.334e-1
2.657e+0, -7.333e-1
2.658e+0, -7.336e-1
2.659e+0, -7.334e-1
2.660e+0, -7.329e-1
2.661e+0, -7.327e-1
2.662e+0, -7.328e-1
2.663e+0, -7.331e-1
2.664e+0, -7.333e-1
2.665e+0, -7.335e-1
2.666e+0, -7.334e-1
2.667e+0, -7.332e-1
2.668e+0, -7.330e-1
2.669e+0, -7.327e-1
2.670e+0, -7.324e-1
2.671e+0, -7.319e-1
2.672e+0, -7.316e-1
2.673e+0, -7.311e-1
2.674e+0, -7.306e-1
2.675e+0, -7.302e-1
2.676e+0, -7.297e-1
2.677e+0, -7.293e-1
2.678e+0, -7.288e-1
2.679e+0, -7.283e-1
2.680e+0, -7.278e-1
2.681e+0, -7.273e-1
2.682e+0, -7.268e-1
2.683e+0, -7.263e-1
2.684e+0, -7.258e-1
2.685e+0, -7.252e-1
2.686e+0, -7.247e-1
2.687e+0, -7.242e-1
2.688e+0, -7.237e-1
2.689e+0, -7.232e-1
2.690e+0, -7.226e-1
2.691e+0, -7.221e-1
2.692e+0, -7.215e-1
2.693e+0, -7.210e-1
2.694e+0, -7.205e-1
2.695e+0, -7.199e-1
2.696e+0, -7.194e-1
2.697e+0, -7.189e-1
2.698e+0, -7.183e-1
2.699e+0, -7.178e-1
2.700e+0, -7.173e-1
2.701e+0, -7.167e-1
2.702e+0, -7.162e-1
2.703e+0, -7.157e-1
2.704e+0, -7.151e-1
2.705e+0, -7.146e-1
2.706e+0, -7.140e-1
2.707e+0, -7.135e-1
2.708e+0, -7.130e-1
2.709e+0, -7.124e-1
2.710e+0, -7.119e-1
2.711e+0, -7.114e-1
2.712e+0, -7.108e-1
2.713e+0, -7.103e-1
2.714e+0, -7.098e-1
2.715e+0, -7.092e-1
2.716e+0, -7.087e-1
2.717e+0, -7.081e-1
2.718e+0, -7.076e-1
2.719e+0, -7.070e-1
2.720e+0, -7.065e-1
2.721e+0, -7.060e-1
2.722e+0, -7.055e-1
2.723e+0, -7.049e-1
2.724e+0, -7.044e-1
2.725e+0, -7.038e-1
2.726e+0, -7.033e-1
2.727e+0, -7.027e-1
2.728e+0, -7.022e-1
2.729e+0, -7.017e-1
2.730e+0, -7.011e-1
2.731e+0, -7.006e-1
2.732e+0, -7.000e-1
2.733e+0, -6.995e-1
2.734e+0, -6.989e-1
2.735e+0, -6.983e-1
2.736e+0, -6.978e-1
2.737e+0, -6.973e-1
2.738e+0, -6.967e-1
2.739e+0, -6.962e-1
2.740e+0, -6.957e-1
2.741e+0, -6.951e-1
2.742e+0, -6.946e-1
2.743e+0, -6.940e-1
2.744e+0, -6.935e-1
2.745e+0, -6.929e-1
2.746e+0, -6.924e-1
2.747e+0, -6.918e-1
2.748e+0, -6.913e-1
2.749e+0, -6.907e-1
2.750e+0, -6.903e-1
2.751e+0, -6.897e-1
2.752e+0, -6.891e-1
2.753e+0, -6.886e-1
2.754e+0, -6.880e-1
2.755e+0, -6.875e-1
2.756e+0, -6.869e-1
2.757e+0, -6.864e-1
2.758e+0, -6.859e-1
2.759e+0, -6.853e-1
2.760e+0, -6.848e-1
2.761e+0, -6.842e-1
2.762e+0, -6.837e-1
2.763e+0, -6.831e-1
2.764e+0, -6.826e-1
2.765e+0, -6.821e-1
2.766e+0, -6.815e-1
2.767e+0, -6.809e-1
2.768e+0, -6.804e-1
2.769e+0, -6.799e-1
2.770e+0, -6.793e-1
2.771e+0, -6.788e-1
2.772e+0, -6.782e-1
2.773e+0, -6.776e-1
2.774e+0, -6.771e-1
2.775e+0, -6.766e-1
2.776e+0, -6.761e-1
2.777e+0, -6.755e-1
2.778e+0, -6.749e-1
2.779e+0, -6.744e-1
2.780e+0, -6.739e-1
2.781e+0, -6.733e-1
2.782e+0, -6.727e-1
2.783e+0, -6.722e-1
2.784e+0, -6.717e-1
2.785e+0, -6.712e-1
2.786e+0, -6.706e-1
2.787e+0, -6.701e-1
2.788e+0, -6.696e-1
2.789e+0, -6.690e-1
2.790e+0, -6.685e-1
2.791e+0, -6.679e-1
2.792e+0, -6.673e-1
2.793e+0, -6.668e-1
2.794e+0, -6.662e-1
2.795e+0, -6.657e-1
2.796e+0, -6.652e-1
2.797e+0, -6.646e-1
2.798e+0, -6.641e-1
2.799e+0, -6.635e-1
2.800e+0, -6.630e-1
2.801e+0, -6.624e-1
2.802e+0, -6.619e-1
2.803e+0, -6.613e-1
2.804e+0, -6.608e-1
2.805e+0, -6.602e-1
2.806e+0, -6.597e-1
2.807e+0, -6.592e-1
2.808e+0, -6.586e-1
2.809e+0, -6.581e-1
2.810e+0, -6.575e-1
2.811e+0, -6.570e-1
2.812e+0, -6.564e-1
2.813e+0, -6.559e-1
2.814e+0, -6.553e-1
2.815e+0, -6.548e-1
2.816e+0, -6.542e-1
2.817e+0, -6.537e-1
2.818e+0, -6.531e-1
2.819e+0, -6.526e-1
2.820e+0, -6.520e-1
2.821e+0, -6.515e-1
2.822e+0, -6.509e-1
2.823e+0, -6.504e-1
2.824e+0, -6.498e-1
2.825e+0, -6.493e-1
2.826e+0, -6.487e-1
2.827e+0, -6.482e-1
2.828e+0, -6.477e-1
2.829e+0, -6.471e-1
2.830e+0, -6.465e-1
2.831e+0, -6.460e-1
2.832e+0, -6.454e-1
2.833e+0, -6.449e-1
2.834e+0, -6.444e-1
2.835e+0, -6.438e-1
2.836e+0, -6.432e-1
2.837e+0, -6.427e-1
2.838e+0, -6.421e-1
2.839e+0, -6.416e-1
2.840e+0, -6.411e-1
2.841e+0, -6.405e-1
2.842e+0, -6.400e-1
2.843e+0, -6.394e-1
2.844e+0, -6.388e-1
2.845e+0, -6.383e-1
2.846e+0, -6.378e-1
2.847e+0, -6.372e-1
2.848e+0, -6.367e-1
2.849e+0, -6.361e-1
2.850e+0, -6.355e-1
2.851e+0, -6.350e-1
2.852e+0, -6.345e-1
2.853e+0, -6.339e-1
2.854e+0, -6.334e-1
2.855e+0, -6.328e-1
2.856e+0, -6.323e-1
2.857e+0, -6.317e-1
2.858e+0, -6.312e-1
2.859e+0, -6.307e-1
2.860e+0, -6.301e-1
2.861e+0, -6.296e-1
2.862e+0, -6.290e-1
2.863e+0, -6.284e-1
2.864e+0, -6.279e-1
2.865e+0, -6.274e-1
2.866e+0, -6.268e-1
2.867e+0, -6.262e-1
2.868e+0, -6.257e-1
2.869e+0, -6.251e-1
2.870e+0, -6.246e-1
2.871e+0, -6.240e-1
2.872e+0, -6.234e-1
2.873e+0, -6.229e-1
2.874e+0, -6.224e-1
2.875e+0, -6.218e-1
2.876e+0, -6.212e-1
2.877e+0, -6.207e-1
2.878e+0, -6.201e-1
2.879e+0, -6.196e-1
2.880e+0, -6.191e-1
2.881e+0, -6.185e-1
2.882e+0, -6.179e-1
2.883e+0, -6.174e-1
2.884e+0, -6.168e-1
2.885e+0, -6.163e-1
2.886e+0, -6.157e-1
2.887e+0, -6.152e-1
2.888e+0, -6.146e-1
2.889e+0, -6.141e-1
2.890e+0, -6.135e-1
2.891e+0, -6.129e-1
2.892e+0, -6.124e-1
2.893e+0, -6.118e-1
2.894e+0, -6.113e-1
2.895e+0, -6.107e-1
2.896e+0, -6.102e-1
2.897e+0, -6.096e-1
2.898e+0, -6.091e-1
2.899e+0, -6.085e-1
2.900e+0, -6.080e-1
2.901e+0, -6.074e-1
2.902e+0, -6.069e-1
2.903e+0, -6.063e-1
2.904e+0, -6.057e-1
2.905e+0, -6.052e-1
2.906e+0, -6.047e-1
2.907e+0, -6.041e-1
2.908e+0, -6.035e-1
2.909e+0, -6.029e-1
2.910e+0, -6.024e-1
2.911e+0, -6.018e-1
2.912e+0, -6.013e-1
2.913e+0, -6.007e-1
2.914e+0, -6.002e-1
2.915e+0, -5.996e-1
2.916e+0, -5.991e-1
2.917e+0, -5.985e-1
2.918e+0, -5.979e-1
2.919e+0, -5.974e-1
2.920e+0, -5.969e-1
2.921e+0, -5.963e-1
2.922e+0, -5.957e-1
2.923e+0, -5.952e-1
2.924e+0, -5.946e-1
2.925e+0, -5.941e-1
2.926e+0, -5.935e-1
2.927e+0, -5.930e-1
2.928e+0, -5.924e-1
2.929e+0, -5.918e-1
2.930e+0, -5.913e-1
2.931e+0, -5.908e-1
2.932e+0, -5.902e-1
2.933e+0, -5.896e-1
2.934e+0, -5.891e-1
2.935e+0, -5.885e-1
2.936e+0, -5.880e-1
2.937e+0, -5.874e-1
2.938e+0, -5.868e-1
2.939e+0, -5.863e-1
2.940e+0, -5.857e-1
2.941e+0, -5.852e-1
2.942e+0, -5.846e-1
2.943e+0, -5.840e-1
2.944e+0, -5.835e-1
2.945e+0, -5.829e-1
2.946e+0, -5.824e-1
2.947e+0, -5.818e-1
2.948e+0, -5.812e-1
2.949e+0, -5.807e-1
2.950e+0, -5.801e-1
2.951e+0, -5.795e-1
2.952e+0, -5.790e-1
2.953e+0, -5.785e-1
2.954e+0, -5.779e-1
2.955e+0, -5.773e-1
2.956e+0, -5.767e-1
2.957e+0, -5.762e-1
2.958e+0, -5.756e-1
2.959e+0, -5.751e-1
2.960e+0, -5.745e-1
2.961e+0, -5.740e-1
2.962e+0, -5.734e-1
2.963e+0, -5.728e-1
2.964e+0, -5.722e-1
2.965e+0, -5.717e-1
2.966e+0, -5.711e-1
2.967e+0, -5.706e-1
2.968e+0, -5.700e-1
2.969e+0, -5.694e-1
2.970e+0, -5.689e-1
2.971e+0, -5.683e-1
2.972e+0, -5.678e-1
2.973e+0, -5.672e-1
2.974e+0, -5.667e-1
2.975e+0, -5.661e-1
2.976e+0, -5.655e-1
2.977e+0, -5.649e-1
2.978e+0, -5.644e-1
2.979e+0, -5.638e-1
2.980e+0, -5.632e-1
2.981e+0, -5.627e-1
2.982e+0, -5.621e-1
2.983e+0, -5.615e-1
2.984e+0, -5.609e-1
2.985e+0, -5.604e-1
2.986e+0, -5.599e-1
2.987e+0, -5.593e-1
2.988e+0, -5.587e-1
2.989e+0, -5.581e-1
2.990e+0, -5.576e-1
2.991e+0, -5.571e-1
2.992e+0, -5.565e-1
2.993e+0, -5.559e-1
2.994e+0, -5.553e-1
2.995e+0, -5.548e-1
2.996e+0, -5.542e-1
2.997e+0, -5.537e-1
2.998e+0, -5.531e-1
2.999e+0, -5.525e-1
3.000e+0, -5.520e-1
3.001e+0, -5.514e-1
3.002e+0, -5.508e-1
3.003e+0, -5.502e-1
3.004e+0, -5.497e-1
3.005e+0, -5.492e-1
3.006e+0, -5.486e-1
3.007e+0, -5.480e-1
3.008e+0, -5.474e-1
3.009e+0, -5.469e-1
3.010e+0, -5.463e-1
3.011e+0, -5.457e-1
3.012e+0, -5.452e-1
3.013e+0, -5.446e-1
3.014e+0, -5.440e-1
3.015e+0, -5.434e-1
3.016e+0, -5.428e-1
3.017e+0, -5.423e-1
3.018e+0, -5.417e-1
3.019e+0, -5.412e-1
3.020e+0, -5.406e-1
3.021e+0, -5.400e-1
3.022e+0, -5.394e-1
3.023e+0, -5.389e-1
3.024e+0, -5.383e-1
3.025e+0, -5.378e-1
3.026e+0, -5.372e-1
3.027e+0, -5.366e-1
3.028e+0, -5.360e-1
3.029e+0, -5.355e-1
3.030e+0, -5.349e-1
3.031e+0, -5.343e-1
3.032e+0, -5.337e-1
3.033e+0, -5.332e-1
3.034e+0, -5.326e-1
3.035e+0, -5.320e-1
3.036e+0, -5.314e-1
3.037e+0, -5.309e-1
3.038e+0, -5.303e-1
3.039e+0, -5.297e-1
3.040e+0, -5.292e-1
3.041e+0, -5.286e-1
3.042e+0, -5.280e-1
3.043e+0, -5.274e-1
3.044e+0, -5.269e-1
3.045e+0, -5.263e-1
3.046e+0, -5.257e-1
3.047e+0, -5.252e-1
3.048e+0, -5.246e-1
3.049e+0, -5.240e-1
3.050e+0, -5.234e-1
3.051e+0, -5.228e-1
3.052e+0, -5.223e-1
3.053e+0, -5.217e-1
3.054e+0, -5.211e-1
3.055e+0, -5.205e-1
3.056e+0, -5.200e-1
3.057e+0, -5.194e-1
3.058e+0, -5.188e-1
3.059e+0, -5.183e-1
3.060e+0, -5.177e-1
3.061e+0, -5.171e-1
3.062e+0, -5.165e-1
3.063e+0, -5.159e-1
3.064e+0, -5.154e-1
3.065e+0, -5.148e-1
3.066e+0, -5.143e-1
3.067e+0, -5.137e-1
3.068e+0, -5.131e-1
3.069e+0, -5.125e-1
3.070e+0, -5.119e-1
3.071e+0, -5.114e-1
3.072e+0, -5.108e-1
3.073e+0, -5.102e-1
3.074e+0, -5.096e-1
3.075e+0, -5.090e-1
3.076e+0, -5.085e-1
3.077e+0, -5.079e-1
3.078e+0, -5.073e-1
3.079e+0, -5.067e-1
3.080e+0, -5.061e-1
3.081e+0, -5.056e-1
3.082e+0, -5.050e-1
3.083e+0, -5.044e-1
3.084e+0, -5.038e-1
3.085e+0, -5.033e-1
3.086e+0, -5.026e-1
3.087e+0, -5.021e-1
3.088e+0, -5.015e-1
3.089e+0, -5.009e-1
3.090e+0, -5.004e-1
3.091e+0, -4.998e-1
3.092e+0, -4.992e-1
3.093e+0, -4.986e-1
3.094e+0, -4.980e-1
3.095e+0, -4.974e-1
3.096e+0, -4.968e-1
3.097e+0, -4.963e-1
3.098e+0, -4.957e-1
3.099e+0, -4.952e-1
3.100e+0, -4.945e-1
3.101e+0, -4.939e-1
3.102e+0, -4.934e-1
3.103e+0, -4.928e-1
3.104e+0, -4.922e-1
3.105e+0, -4.916e-1
3.106e+0, -4.910e-1
3.107e+0, -4.905e-1
3.108e+0, -4.899e-1
3.109e+0, -4.893e-1
3.110e+0, -4.887e-1
3.111e+0, -4.881e-1
3.112e+0, -4.875e-1
3.113e+0, -4.869e-1
3.114e+0, -4.864e-1
3.115e+0, -4.858e-1
3.116e+0, -4.852e-1
3.117e+0, -4.846e-1
3.118e+0, -4.840e-1
3.119e+0, -4.834e-1
3.120e+0, -4.828e-1
3.121e+0, -4.822e-1
3.122e+0, -4.816e-1
3.123e+0, -4.811e-1
3.124e+0, -4.805e-1
3.125e+0, -4.799e-1
3.126e+0, -4.793e-1
3.127e+0, -4.787e-1
3.128e+0, -4.781e-1
3.129e+0, -4.775e-1
3.130e+0, -4.770e-1
3.131e+0, -4.764e-1
3.132e+0, -4.758e-1
3.133e+0, -4.752e-1
3.134e+0, -4.746e-1
3.135e+0, -4.740e-1
3.136e+0, -4.734e-1
3.137e+0, -4.729e-1
3.138e+0, -4.723e-1
3.139e+0, -4.717e-1
3.140e+0, -4.711e-1
3.141e+0, -4.705e-1
3.142e+0, -4.699e-1
3.143e+0, -4.693e-1
3.144e+0, -4.687e-1
3.145e+0, -4.682e-1
3.146e+0, -4.676e-1
3.147e+0, -4.670e-1
3.148e+0, -4.664e-1
3.149e+0, -4.658e-1
3.150e+0, -4.652e-1
3.151e+0, -4.646e-1
3.152e+0, -4.640e-1
3.153e+0, -4.634e-1
3.154e+0, -4.628e-1
3.155e+0, -4.622e-1
3.156e+0, -4.616e-1
3.157e+0, -4.610e-1
3.158e+0, -4.605e-1
3.159e+0, -4.598e-1
3.160e+0, -4.593e-1
3.161e+0, -4.586e-1
3.162e+0, -4.581e-1
3.163e+0, -4.575e-1
3.164e+0, -4.569e-1
3.165e+0, -4.563e-1
3.166e+0, -4.557e-1
3.167e+0, -4.551e-1
3.168e+0, -4.545e-1
3.169e+0, -4.539e-1
3.170e+0, -4.533e-1
3.171e+0, -4.527e-1
3.172e+0, -4.521e-1
3.173e+0, -4.515e-1
3.174e+0, -4.509e-1
3.175e+0, -4.503e-1
3.176e+0, -4.497e-1
3.177e+0, -4.492e-1
3.178e+0, -4.485e-1
3.179e+0, -4.479e-1
3.180e+0, -4.473e-1
3.181e+0, -4.467e-1
3.182e+0, -4.461e-1
3.183e+0, -4.455e-1
3.184e+0, -4.450e-1
3.185e+0, -4.443e-1
3.186e+0, -4.437e-1
3.187e+0, -4.431e-1
3.188e+0, -4.425e-1
3.189e+0, -4.420e-1
3.190e+0, -4.413e-1
3.191e+0, -4.408e-1
3.192e+0, -4.402e-1
3.193e+0, -4.395e-1
3.194e+0, -4.389e-1
3.195e+0, -4.383e-1
3.196e+0, -4.378e-1
3.197e+0, -4.371e-1
3.198e+0, -4.366e-1
3.199e+0, -4.360e-1
3.200e+0, -4.354e-1
3.201e+0, -4.347e-1
3.202e+0, -4.342e-1
3.203e+0, -4.336e-1
3.204e+0, -4.330e-1
3.205e+0, -4.324e-1
3.206e+0, -4.318e-1
3.207e+0, -4.312e-1
3.208e+0, -4.306e-1
3.209e+0, -4.300e-1
3.210e+0, -4.294e-1
3.211e+0, -4.287e-1
3.212e+0, -4.282e-1
3.213e+0, -4.275e-1
3.214e+0, -4.269e-1
3.215e+0, -4.263e-1
3.216e+0, -4.257e-1
3.217e+0, -4.251e-1
3.218e+0, -4.245e-1
3.219e+0, -4.239e-1
3.220e+0, -4.233e-1
3.221e+0, -4.227e-1
3.222e+0, -4.221e-1
3.223e+0, -4.215e-1
3.224e+0, -4.209e-1
3.225e+0, -4.202e-1
3.226e+0, -4.197e-1
3.227e+0, -4.191e-1
3.228e+0, -4.185e-1
3.229e+0, -4.179e-1
3.230e+0, -4.172e-1
3.231e+0, -4.166e-1
3.232e+0, -4.160e-1
3.233e+0, -4.154e-1
3.234e+0, -4.148e-1
3.235e+0, -4.142e-1
3.236e+0, -4.136e-1
3.237e+0, -4.129e-1
3.238e+0, -4.124e-1
3.239e+0, -4.118e-1
3.240e+0, -4.111e-1
3.241e+0, -4.105e-1
3.242e+0, -4.099e-1
3.243e+0, -4.093e-1
3.244e+0, -4.087e-1
3.245e+0, -4.081e-1
3.246e+0, -4.075e-1
3.247e+0, -4.069e-1
3.248e+0, -4.062e-1
3.249e+0, -4.056e-1
3.250e+0, -4.050e-1
3.251e+0, -4.044e-1
3.252e+0, -4.038e-1
3.253e+0, -4.031e-1
3.254e+0, -4.025e-1
3.255e+0, -4.020e-1
3.256e+0, -4.014e-1
3.257e+0, -4.007e-1
3.258e+0, -4.001e-1
3.259e+0, -3.995e-1
3.260e+0, -3.989e-1
3.261e+0, -3.983e-1
3.262e+0, -3.977e-1
3.263e+0, -3.971e-1
3.264e+0, -3.965e-1
3.265e+0, -3.958e-1
3.266e+0, -3.952e-1
3.267e+0, -3.946e-1
3.268e+0, -3.940e-1
3.269e+0, -3.934e-1
3.270e+0, -3.928e-1
3.271e+0, -3.922e-1
3.272e+0, -3.915e-1
3.273e+0, -3.909e-1
3.274e+0, -3.903e-1
3.275e+0, -3.897e-1
3.276e+0, -3.891e-1
3.277e+0, -3.884e-1
3.278e+0, -3.878e-1
3.279e+0, -3.872e-1
3.280e+0, -3.865e-1
3.281e+0, -3.859e-1
3.282e+0, -3.853e-1
3.283e+0, -3.847e-1
3.284e+0, -3.841e-1
3.285e+0, -3.835e-1
3.286e+0, -3.829e-1
3.287e+0, -3.822e-1
3.288e+0, -3.816e-1
3.289e+0, -3.810e-1
3.290e+0, -3.804e-1
3.291e+0, -3.798e-1
3.292e+0, -3.791e-1
3.293e+0, -3.785e-1
3.294e+0, -3.779e-1
3.295e+0, -3.773e-1
3.296e+0, -3.766e-1
3.297e+0, -3.760e-1
3.298e+0, -3.754e-1
3.299e+0, -3.748e-1
3.300e+0, -3.741e-1
3.301e+0, -3.735e-1
3.302e+0, -3.729e-1
3.303e+0, -3.723e-1
3.304e+0, -3.717e-1
3.305e+0, -3.710e-1
3.306e+0, -3.704e-1
3.307e+0, -3.698e-1
3.308e+0, -3.692e-1
3.309e+0, -3.685e-1
3.310e+0, -3.679e-1
3.311e+0, -3.673e-1
3.312e+0, -3.666e-1
3.313e+0, -3.660e-1
3.314e+0, -3.654e-1
3.315e+0, -3.647e-1
3.316e+0, -3.642e-1
3.317e+0, -3.635e-1
3.318e+0, -3.629e-1
3.319e+0, -3.623e-1
3.320e+0, -3.616e-1
3.321e+0, -3.611e-1
3.322e+0, -3.604e-1
3.323e+0, -3.598e-1
3.324e+0, -3.591e-1
3.325e+0, -3.585e-1
3.326e+0, -3.579e-1
3.327e+0, -3.573e-1
3.328e+0, -3.567e-1
3.329e+0, -3.560e-1
3.330e+0, -3.554e-1
3.331e+0, -3.548e-1
3.332e+0, -3.541e-1
3.333e+0, -3.535e-1
3.334e+0, -3.529e-1
3.335e+0, -3.523e-1
3.336e+0, -3.516e-1
3.337e+0, -3.510e-1
3.338e+0, -3.503e-1
3.339e+0, -3.497e-1
3.340e+0, -3.491e-1
3.341e+0, -3.484e-1
3.342e+0, -3.478e-1
3.343e+0, -3.472e-1
3.344e+0, -3.466e-1
3.345e+0, -3.459e-1
3.346e+0, -3.453e-1
3.347e+0, -3.446e-1
3.348e+0, -3.440e-1
3.349e+0, -3.434e-1
3.350e+0, -3.428e-1
3.351e+0, -3.422e-1
3.352e+0, -3.415e-1
3.353e+0, -3.409e-1
3.354e+0, -3.402e-1
3.355e+0, -3.396e-1
3.356e+0, -3.390e-1
3.357e+0, -3.383e-1
3.358e+0, -3.377e-1
3.359e+0, -3.370e-1
3.360e+0, -3.364e-1
3.361e+0, -3.358e-1
3.362e+0, -3.351e-1
3.363e+0, -3.345e-1
3.364e+0, -3.339e-1
3.365e+0, -3.333e-1
3.366e+0, -3.326e-1
3.367e+0, -3.320e-1
3.368e+0, -3.314e-1
3.369e+0, -3.307e-1
3.370e+0, -3.301e-1
3.371e+0, -3.294e-1
3.372e+0, -3.288e-1
3.373e+0, -3.281e-1
3.374e+0, -3.275e-1
3.375e+0, -3.269e-1
3.376e+0, -3.262e-1
3.377e+0, -3.256e-1
3.378e+0, -3.250e-1
3.379e+0, -3.243e-1
3.380e+0, -3.237e-1
3.381e+0, -3.230e-1
3.382e+0, -3.224e-1
3.383e+0, -3.217e-1
3.384e+0, -3.211e-1
3.385e+0, -3.205e-1
3.386e+0, -3.198e-1
3.387e+0, -3.192e-1
3.388e+0, -3.186e-1
3.389e+0, -3.179e-1
3.390e+0, -3.173e-1
3.391e+0, -3.166e-1
3.392e+0, -3.160e-1
3.393e+0, -3.154e-1
3.394e+0, -3.147e-1
3.395e+0, -3.141e-1
3.396e+0, -3.135e-1
3.397e+0, -3.128e-1
3.398e+0, -3.121e-1
3.399e+0, -3.115e-1
3.400e+0, -3.109e-1
3.401e+0, -3.102e-1
3.402e+0, -3.096e-1
3.403e+0, -3.089e-1
3.404e+0, -3.082e-1
3.405e+0, -3.076e-1
3.406e+0, -3.070e-1
3.407e+0, -3.063e-1
3.408e+0, -3.057e-1
3.409e+0, -3.050e-1
3.410e+0, -3.044e-1
3.411e+0, -3.037e-1
3.412e+0, -3.031e-1
3.413e+0, -3.024e-1
3.414e+0, -3.018e-1
3.415e+0, -3.012e-1
3.416e+0, -3.005e-1
3.417e+0, -2.999e-1
3.418e+0, -2.992e-1
3.419e+0, -2.985e-1
3.420e+0, -2.979e-1
3.421e+0, -2.972e-1
3.422e+0, -2.966e-1
3.423e+0, -2.959e-1
3.424e+0, -2.953e-1
3.425e+0, -2.946e-1
3.426e+0, -2.940e-1
3.427e+0, -2.934e-1
3.428e+0, -2.927e-1
3.429e+0, -2.920e-1
3.430e+0, -2.914e-1
3.431e+0, -2.907e-1
3.432e+0, -2.901e-1
3.433e+0, -2.894e-1
3.434e+0, -2.888e-1
3.435e+0, -2.881e-1
3.436e+0, -2.875e-1
3.437e+0, -2.868e-1
3.438e+0, -2.861e-1
3.439e+0, -2.854e-1
3.440e+0, -2.848e-1
3.441e+0, -2.842e-1
3.442e+0, -2.835e-1
3.443e+0, -2.828e-1
3.444e+0, -2.822e-1
3.445e+0, -2.815e-1
3.446e+0, -2.809e-1
3.447e+0, -2.802e-1
3.448e+0, -2.796e-1
3.449e+0, -2.789e-1
3.450e+0, -2.783e-1
3.451e+0, -2.776e-1
3.452e+0, -2.770e-1
3.453e+0, -2.763e-1
3.454e+0, -2.756e-1
3.455e+0, -2.750e-1
3.456e+0, -2.743e-1
3.457e+0, -2.737e-1
3.458e+0, -2.730e-1
3.459e+0, -2.724e-1
3.460e+0, -2.717e-1
3.461e+0, -2.710e-1
3.462e+0, -2.704e-1
3.463e+0, -2.697e-1
3.464e+0, -2.690e-1
3.465e+0, -2.683e-1
3.466e+0, -2.677e-1
3.467e+0, -2.671e-1
3.468e+0, -2.664e-1
3.469e+0, -2.658e-1
3.470e+0, -2.651e-1
3.471e+0, -2.644e-1
3.472e+0, -2.638e-1
3.473e+0, -2.631e-1
3.474e+0, -2.624e-1
3.475e+0, -2.617e-1
3.476e+0, -2.611e-1
3.477e+0, -2.604e-1
3.478e+0, -2.598e-1
3.479e+0, -2.591e-1
3.480e+0, -2.584e-1
3.481e+0, -2.578e-1
3.482e+0, -2.571e-1
3.483e+0, -2.564e-1
3.484e+0, -2.557e-1
3.485e+0, -2.551e-1
3.486e+0, -2.544e-1
3.487e+0, -2.538e-1
3.488e+0, -2.531e-1
3.489e+0, -2.524e-1
3.490e+0, -2.518e-1
3.491e+0, -2.511e-1
3.492e+0, -2.504e-1
3.493e+0, -2.497e-1
3.494e+0, -2.491e-1
3.495e+0, -2.484e-1
3.496e+0, -2.477e-1
3.497e+0, -2.470e-1
3.498e+0, -2.464e-1
3.499e+0, -2.457e-1
3.500e+0, -2.451e-1
3.501e+0, -2.444e-1
3.502e+0, -2.437e-1
3.503e+0, -2.430e-1
3.504e+0, -2.423e-1
3.505e+0, -2.417e-1
3.506e+0, -2.411e-1
3.507e+0, -2.404e-1
3.508e+0, -2.397e-1
3.509e+0, -2.391e-1
3.510e+0, -2.384e-1
3.511e+0, -2.377e-1
3.512e+0, -2.370e-1
3.513e+0, -2.363e-1
3.514e+0, -2.357e-1
3.515e+0, -2.350e-1
3.516e+0, -2.344e-1
3.517e+0, -2.336e-1
3.518e+0, -2.330e-1
3.519e+0, -2.324e-1
3.520e+0, -2.316e-1
3.521e+0, -2.310e-1
3.522e+0, -2.303e-1
3.523e+0, -2.296e-1
3.524e+0, -2.289e-1
3.525e+0, -2.282e-1
3.526e+0, -2.276e-1
3.527e+0, -2.269e-1
3.528e+0, -2.263e-1
3.529e+0, -2.256e-1
3.530e+0, -2.249e-1
3.531e+0, -2.242e-1
3.532e+0, -2.235e-1
3.533e+0, -2.229e-1
3.534e+0, -2.222e-1
3.535e+0, -2.215e-1
3.536e+0, -2.208e-1
3.537e+0, -2.201e-1
3.538e+0, -2.194e-1
3.539e+0, -2.188e-1
3.540e+0, -2.181e-1
3.541e+0, -2.174e-1
3.542e+0, -2.167e-1
3.543e+0, -2.160e-1
3.544e+0, -2.153e-1
3.545e+0, -2.147e-1
3.546e+0, -2.140e-1
3.547e+0, -2.133e-1
3.548e+0, -2.126e-1
3.549e+0, -2.120e-1
3.550e+0, -2.112e-1
3.551e+0, -2.106e-1
3.552e+0, -2.099e-1
3.553e+0, -2.092e-1
3.554e+0, -2.085e-1
3.555e+0, -2.078e-1
3.556e+0, -2.072e-1
3.557e+0, -2.065e-1
3.558e+0, -2.058e-1
3.559e+0, -2.051e-1
3.560e+0, -2.044e-1
3.561e+0, -2.038e-1
3.562e+0, -2.031e-1
3.563e+0, -2.024e-1
3.564e+0, -2.017e-1
3.565e+0, -2.010e-1
3.566e+0, -2.004e-1
3.567e+0, -1.997e-1
3.568e+0, -1.990e-1
3.569e+0, -1.983e-1
3.570e+0, -1.976e-1
3.571e+0, -1.969e-1
3.572e+0, -1.962e-1
3.573e+0, -1.956e-1
3.574e+0, -1.948e-1
3.575e+0, -1.942e-1
3.576e+0, -1.935e-1
3.577e+0, -1.928e-1
3.578e+0, -1.921e-1
3.579e+0, -1.914e-1
3.580e+0, -1.907e-1
3.581e+0, -1.900e-1
3.582e+0, -1.893e-1
3.583e+0, -1.886e-1
3.584e+0, -1.879e-1
3.585e+0, -1.873e-1
3.586e+0, -1.866e-1
3.587e+0, -1.859e-1
3.588e+0, -1.852e-1
3.589e+0, -1.845e-1
3.590e+0, -1.838e-1
3.591e+0, -1.831e-1
3.592e+0, -1.824e-1
3.593e+0, -1.817e-1
3.594e+0, -1.811e-1
3.595e+0, -1.804e-1
3.596e+0, -1.796e-1
3.597e+0, -1.789e-1
3.598e+0, -1.782e-1
3.599e+0, -1.776e-1
3.600e+0, -1.769e-1
3.601e+0, -1.763e-1
3.602e+0, -1.755e-1
3.603e+0, -1.748e-1
3.604e+0, -1.741e-1
3.605e+0, -1.734e-1
3.606e+0, -1.728e-1
3.607e+0, -1.720e-1
3.608e+0, -1.714e-1
3.609e+0, -1.706e-1
3.610e+0, -1.699e-1
3.611e+0, -1.692e-1
3.612e+0, -1.685e-1
3.613e+0, -1.679e-1
3.614e+0, -1.671e-1
3.615e+0, -1.665e-1
3.616e+0, -1.658e-1
3.617e+0, -1.651e-1
3.618e+0, -1.644e-1
3.619e+0, -1.637e-1
3.620e+0, -1.630e-1
3.621e+0, -1.623e-1
3.622e+0, -1.616e-1
3.623e+0, -1.609e-1
3.624e+0, -1.602e-1
3.625e+0, -1.595e-1
3.626e+0, -1.588e-1
3.627e+0, -1.581e-1
3.628e+0, -1.574e-1
3.629e+0, -1.567e-1
3.630e+0, -1.560e-1
3.631e+0, -1.553e-1
3.632e+0, -1.547e-1
3.633e+0, -1.539e-1
3.634e+0, -1.532e-1
3.635e+0, -1.525e-1
3.636e+0, -1.518e-1
3.637e+0, -1.511e-1
3.638e+0, -1.504e-1
3.639e+0, -1.497e-1
3.640e+0, -1.490e-1
3.641e+0, -1.483e-1
3.642e+0, -1.476e-1
3.643e+0, -1.469e-1
3.644e+0, -1.462e-1
3.645e+0, -1.455e-1
3.646e+0, -1.448e-1
3.647e+0, -1.441e-1
3.648e+0, -1.434e-1
3.649e+0, -1.427e-1
3.650e+0, -1.420e-1
3.651e+0, -1.413e-1
3.652e+0, -1.406e-1
3.653e+0, -1.399e-1
3.654e+0, -1.391e-1
3.655e+0, -1.384e-1
3.656e+0, -1.378e-1
3.657e+0, -1.370e-1
3.658e+0, -1.363e-1
3.659e+0, -1.356e-1
3.660e+0, -1.350e-1
3.661e+0, -1.342e-1
3.662e+0, -1.335e-1
3.663e+0, -1.328e-1
3.664e+0, -1.321e-1
3.665e+0, -1.314e-1
3.666e+0, -1.307e-1
3.667e+0, -1.300e-1
3.668e+0, -1.293e-1
3.669e+0, -1.286e-1
3.670e+0, -1.279e-1
3.671e+0, -1.271e-1
3.672e+0, -1.264e-1
3.673e+0, -1.257e-1
3.674e+0, -1.250e-1
3.675e+0, -1.243e-1
3.676e+0, -1.236e-1
3.677e+0, -1.229e-1
3.678e+0, -1.222e-1
3.679e+0, -1.215e-1
3.680e+0, -1.208e-1
3.681e+0, -1.201e-1
3.682e+0, -1.194e-1
3.683e+0, -1.186e-1
3.684e+0, -1.180e-1
3.685e+0, -1.173e-1
3.686e+0, -1.166e-1
3.687e+0, -1.158e-1
3.688e+0, -1.151e-1
3.689e+0, -1.144e-1
3.690e+0, -1.137e-1
3.691e+0, -1.130e-1
3.692e+0, -1.123e-1
3.693e+0, -1.116e-1
3.694e+0, -1.108e-1
3.695e+0, -1.102e-1
3.696e+0, -1.094e-1
3.697e+0, -1.087e-1
3.698e+0, -1.081e-1
3.699e+0, -1.073e-1
3.700e+0, -1.066e-1
3.701e+0, -1.059e-1
3.702e+0, -1.052e-1
3.703e+0, -1.045e-1
3.704e+0, -1.037e-1
3.705e+0, -1.030e-1
3.706e+0, -1.023e-1
3.707e+0, -1.016e-1
3.708e+0, -1.009e-1
3.709e+0, -1.002e-1
3.710e+0, -9.944e-2
3.711e+0, -9.873e-2
3.712e+0, -9.805e-2
3.713e+0, -9.731e-2
3.714e+0, -9.664e-2
3.715e+0, -9.587e-2
3.716e+0, -9.518e-2
3.717e+0, -9.448e-2
3.718e+0, -9.372e-2
3.719e+0, -9.302e-2
3.720e+0, -9.228e-2
3.721e+0, -9.160e-2
3.722e+0, -9.087e-2
3.723e+0, -9.016e-2
3.724e+0, -8.941e-2
3.725e+0, -8.872e-2
3.726e+0, -8.804e-2
3.727e+0, -8.730e-2
3.728e+0, -8.660e-2
3.729e+0, -8.587e-2
3.730e+0, -8.515e-2
3.731e+0, -8.443e-2
3.732e+0, -8.375e-2
3.733e+0, -8.303e-2
3.734e+0, -8.229e-2
3.735e+0, -8.159e-2
3.736e+0, -8.087e-2
3.737e+0, -8.015e-2
3.738e+0, -7.946e-2
3.739e+0, -7.874e-2
3.740e+0, -7.804e-2
3.741e+0, -7.731e-2
3.742e+0, -7.658e-2
3.743e+0, -7.587e-2
3.744e+0, -7.516e-2
3.745e+0, -7.447e-2
3.746e+0, -7.372e-2
3.747e+0, -7.301e-2
3.748e+0, -7.227e-2
3.749e+0, -7.154e-2
3.750e+0, -7.086e-2
3.751e+0, -7.013e-2
3.752e+0, -6.944e-2
3.753e+0, -6.868e-2
3.754e+0, -6.798e-2
3.755e+0, -6.726e-2
3.756e+0, -6.650e-2
3.757e+0, -6.581e-2
3.758e+0, -6.508e-2
3.759e+0, -6.440e-2
3.760e+0, -6.363e-2
3.761e+0, -6.297e-2
3.762e+0, -6.220e-2
3.763e+0, -6.148e-2
3.764e+0, -6.080e-2
3.765e+0, -6.006e-2
3.766e+0, -5.937e-2
3.767e+0, -5.862e-2
3.768e+0, -5.792e-2
3.769e+0, -5.720e-2
3.770e+0, -5.648e-2
3.771e+0, -5.575e-2
3.772e+0, -5.503e-2
3.773e+0, -5.433e-2
3.774e+0, -5.355e-2
3.775e+0, -5.285e-2
3.776e+0, -5.213e-2
3.777e+0, -5.139e-2
3.778e+0, -5.072e-2
3.779e+0, -4.996e-2
3.780e+0, -4.930e-2
3.781e+0, -4.853e-2
3.782e+0, -4.783e-2
3.783e+0, -4.710e-2
3.784e+0, -4.638e-2
3.785e+0, -4.568e-2
3.786e+0, -4.498e-2
3.787e+0, -4.432e-2
3.788e+0, -4.355e-2
3.789e+0, -4.284e-2
3.790e+0, -4.209e-2
3.791e+0, -4.138e-2
3.792e+0, -4.069e-2
3.793e+0, -3.996e-2
3.794e+0, -3.926e-2
3.795e+0, -3.852e-2
3.796e+0, -3.779e-2
3.797e+0, -3.706e-2
3.798e+0, -3.635e-2
3.799e+0, -3.566e-2
3.800e+0, -3.489e-2
3.801e+0, -3.417e-2
3.802e+0, -3.346e-2
3.803e+0, -3.273e-2
3.804e+0, -3.200e-2
3.805e+0, -3.127e-2
3.806e+0, -3.061e-2
3.807e+0, -2.991e-2
3.808e+0, -2.919e-2
3.809e+0, -2.842e-2
3.810e+0, -2.773e-2
3.811e+0, -2.703e-2
3.812e+0, -2.628e-2
3.813e+0, -2.557e-2
3.814e+0, -2.480e-2
3.815e+0, -2.409e-2
3.816e+0, -2.340e-2
3.817e+0, -2.267e-2
3.818e+0, -2.196e-2
3.819e+0, -2.122e-2
3.820e+0, -2.055e-2
3.821e+0, -1.981e-2
3.822e+0, -1.909e-2
3.823e+0, -1.834e-2
3.824e+0, -1.762e-2
3.825e+0, -1.695e-2
3.826e+0, -1.621e-2
3.827e+0, -1.552e-2
3.828e+0, -1.475e-2
3.829e+0, -1.404e-2
3.830e+0, -1.332e-2
3.831e+0, -1.258e-2
3.832e+0, -1.191e-2
3.833e+0, -1.115e-2
3.834e+0, -1.047e-2
3.835e+0, -9.747e-3
3.836e+0, -9.027e-3
3.837e+0, -8.305e-3
3.838e+0, -7.572e-3
3.839e+0, -6.898e-3
3.840e+0, -6.153e-3
3.841e+0, -5.471e-3
3.842e+0, -4.725e-3
3.843e+0, -4.021e-3
3.844e+0, -3.311e-3
3.845e+0, -2.593e-3
3.846e+0, -1.894e-3
3.847e+0, -1.173e-3
3.848e+0, -4.471e-4
3.849e+0, -2.110e-1
3.850e+0, -2.077e-1
3.851e+0, -2.089e-1
3.852e+0, -2.102e-1
3.853e+0, -2.116e-1
3.854e+0, -2.129e-1
3.855e+0, -2.142e-1
3.856e+0, -2.154e-1
3.857e+0, -2.167e-1
3.858e+0, -2.178e-1
3.859e+0, -2.189e-1
3.860e+0, -2.200e-1
3.861e+0, -2.212e-1
3.862e+0, -2.224e-1
3.863e+0, -2.236e-1
3.864e+0, -2.247e-1
3.865e+0, -2.257e-1
3.866e+0, -2.266e-1
3.867e+0, -2.275e-1
3.868e+0, -2.286e-1
3.869e+0, -2.300e-1
3.870e+0, -2.316e-1
3.871e+0, -2.332e-1
3.872e+0, -2.347e-1
3.873e+0, -2.359e-1
3.874e+0, -2.367e-1
3.875e+0, -2.369e-1
3.876e+0, -2.372e-1
3.877e+0, -2.376e-1
3.878e+0, -2.380e-1
3.879e+0, -2.386e-1
3.880e+0, -2.394e-1
3.881e+0, -2.403e-1
3.882e+0, -2.415e-1
3.883e+0, -2.432e-1
3.884e+0, -2.453e-1
3.885e+0, -2.471e-1
3.886e+0, -2.486e-1
3.887e+0, -2.507e-1
3.888e+0, -2.530e-1
3.889e+0, -2.542e-1
3.890e+0, -2.532e-1
3.891e+0, -2.524e-1
3.892e+0, -2.530e-1
3.893e+0, -2.543e-1
3.894e+0, -2.561e-1
3.895e+0, -2.574e-1
3.896e+0, -2.581e-1
3.897e+0, -2.588e-1
3.898e+0, -2.595e-1
3.899e+0, -2.602e-1
3.900e+0, -2.609e-1
3.901e+0, -2.615e-1
3.902e+0, -2.623e-1
3.903e+0, -2.632e-1
3.904e+0, -2.642e-1
3.905e+0, -2.651e-1
3.906e+0, -2.662e-1
3.907e+0, -2.671e-1
3.908e+0, -2.681e-1
3.909e+0, -2.690e-1
3.910e+0, -2.700e-1
3.911e+0, -2.709e-1
3.912e+0, -2.717e-1
3.913e+0, -2.726e-1
3.914e+0, -2.734e-1
3.915e+0, -2.742e-1
3.916e+0, -2.750e-1
3.917e+0, -2.758e-1
3.918e+0, -2.765e-1
3.919e+0, -2.771e-1
3.920e+0, -2.776e-1
3.921e+0, -2.780e-1
3.922e+0, -2.782e-1
3.923e+0, -2.785e-1
3.924e+0, -2.788e-1
3.925e+0, -2.791e-1
3.926e+0, -2.795e-1
3.927e+0, -2.800e-1
3.928e+0, -2.805e-1
3.929e+0, -2.811e-1
3.930e+0, -2.817e-1
3.931e+0, -2.824e-1
3.932e+0, -2.831e-1
3.933e+0, -2.837e-1
3.934e+0, -2.844e-1
3.935e+0, -2.851e-1
3.936e+0, -2.859e-1
3.937e+0, -2.866e-1
3.938e+0, -2.873e-1
3.939e+0, -2.881e-1
3.940e+0, -2.888e-1
3.941e+0, -2.895e-1
3.942e+0, -2.903e-1
3.943e+0, -2.911e-1
3.944e+0, -2.919e-1
3.945e+0, -2.926e-1
3.946e+0, -2.934e-1
3.947e+0, -2.941e-1
3.948e+0, -2.949e-1
3.949e+0, -2.956e-1
3.950e+0, -2.964e-1
3.951e+0, -2.972e-1
3.952e+0, -2.979e-1
3.953e+0, -2.987e-1
3.954e+0, -2.995e-1
3.955e+0, -3.002e-1
3.956e+0, -3.010e-1
3.957e+0, -3.018e-1
3.958e+0, -3.026e-1
3.959e+0, -3.033e-1
3.960e+0, -3.041e-1
3.961e+0, -3.048e-1
3.962e+0, -3.056e-1
3.963e+0, -3.064e-1
3.964e+0, -3.071e-1
3.965e+0, -3.079e-1
3.966e+0, -3.087e-1
3.967e+0, -3.095e-1
3.968e+0, -3.102e-1
3.969e+0, -3.110e-1
3.970e+0, -3.118e-1
3.971e+0, -3.125e-1
3.972e+0, -3.133e-1
3.973e+0, -3.141e-1
3.974e+0, -3.148e-1
3.975e+0, -3.156e-1
3.976e+0, -3.163e-1
3.977e+0, -3.171e-1
3.978e+0, -3.179e-1
3.979e+0, -3.186e-1
3.980e+0, -3.194e-1
3.981e+0, -3.202e-1
3.982e+0, -3.209e-1
3.983e+0, -3.217e-1
3.984e+0, -3.225e-1
3.985e+0, -3.232e-1
3.986e+0, -3.240e-1
3.987e+0, -3.247e-1
3.988e+0, -3.255e-1
3.989e+0, -3.263e-1
3.990e+0, -3.270e-1
3.991e+0, -3.278e-1
3.992e+0, -3.285e-1
3.993e+0, -3.293e-1
3.994e+0, -3.300e-1
3.995e+0, -3.308e-1
3.996e+0, -3.316e-1
3.997e+0, -3.323e-1
3.998e+0, -3.331e-1
3.999e+0, -3.338e-1
4.000e+0, -3.346e-1
4.001e+0, -3.353e-1
4.002e+0, -3.361e-1
4.003e+0, -3.369e-1
4.004e+0, -3.376e-1
4.005e+0, -3.384e-1
4.006e+0, -3.391e-1
4.007e+0, -3.399e-1
4.008e+0, -3.406e-1
4.009e+0, -3.414e-1
4.010e+0, -3.421e-1
4.011e+0, -3.429e-1
4.012e+0, -3.437e-1
4.013e+0, -3.444e-1
4.014e+0, -3.451e-1
4.015e+0, -3.459e-1
4.016e+0, -3.466e-1
4.017e+0, -3.474e-1
4.018e+0, -3.481e-1
4.019e+0, -3.489e-1
4.020e+0, -3.496e-1
4.021e+0, -3.504e-1
4.022e+0, -3.511e-1
4.023e+0, -3.519e-1
4.024e+0, -3.527e-1
4.025e+0, -3.534e-1
4.026e+0, -3.541e-1
4.027e+0, -3.549e-1
4.028e+0, -3.556e-1
4.029e+0, -3.564e-1
4.030e+0, -3.571e-1
4.031e+0, -3.579e-1
4.032e+0, -3.586e-1
4.033e+0, -3.593e-1
4.034e+0, -3.600e-1
4.035e+0, -3.608e-1
4.036e+0, -3.615e-1
4.037e+0, -3.623e-1
4.038e+0, -3.631e-1
4.039e+0, -3.637e-1
4.040e+0, -3.645e-1
4.041e+0, -3.652e-1
4.042e+0, -3.660e-1
4.043e+0, -3.667e-1
4.044e+0, -3.674e-1
4.045e+0, -3.682e-1
4.046e+0, -3.690e-1
4.047e+0, -3.697e-1
4.048e+0, -3.704e-1
4.049e+0, -3.711e-1
4.050e+0, -3.719e-1
4.051e+0, -3.726e-1
4.052e+0, -3.734e-1
4.053e+0, -3.741e-1
4.054e+0, -3.748e-1
4.055e+0, -3.756e-1
4.056e+0, -3.763e-1
4.057e+0, -3.770e-1
4.058e+0, -3.778e-1
4.059e+0, -3.785e-1
4.060e+0, -3.792e-1
4.061e+0, -3.800e-1
4.062e+0, -3.807e-1
4.063e+0, -3.814e-1
4.064e+0, -3.822e-1
4.065e+0, -3.829e-1
4.066e+0, -3.836e-1
4.067e+0, -3.843e-1
4.068e+0, -3.851e-1
4.069e+0, -3.858e-1
4.070e+0, -3.865e-1
4.071e+0, -3.873e-1
4.072e+0, -3.880e-1
4.073e+0, -3.887e-1
4.074e+0, -3.894e-1
4.075e+0, -3.902e-1
4.076e+0, -3.909e-1
4.077e+0, -3.916e-1
4.078e+0, -3.924e-1
4.079e+0, -3.931e-1
4.080e+0, -3.938e-1
4.081e+0, -3.945e-1
4.082e+0, -3.952e-1
4.083e+0, -3.960e-1
4.084e+0, -3.967e-1
4.085e+0, -3.975e-1
4.086e+0, -3.981e-1
4.087e+0, -3.988e-1
4.088e+0, -3.995e-1
4.089e+0, -4.003e-1
4.090e+0, -4.010e-1
4.091e+0, -4.017e-1
4.092e+0, -4.024e-1
4.093e+0, -4.031e-1
4.094e+0, -4.039e-1
4.095e+0, -4.046e-1
4.096e+0, -4.053e-1
4.097e+0, -4.060e-1
4.098e+0, -4.067e-1
4.099e+0, -4.075e-1
4.100e+0, -4.082e-1
4.101e+0, -4.089e-1
4.102e+0, -4.097e-1
4.103e+0, -4.103e-1
4.104e+0, -4.111e-1
4.105e+0, -4.118e-1
4.106e+0, -4.125e-1
4.107e+0, -4.132e-1
4.108e+0, -4.139e-1
4.109e+0, -4.146e-1
4.110e+0, -4.153e-1
4.111e+0, -4.161e-1
4.112e+0, -4.167e-1
4.113e+0, -4.175e-1
4.114e+0, -4.182e-1
4.115e+0, -4.189e-1
4.116e+0, -4.196e-1
4.117e+0, -4.203e-1
4.118e+0, -4.210e-1
4.119e+0, -4.217e-1
4.120e+0, -4.224e-1
4.121e+0, -4.231e-1
4.122e+0, -4.238e-1
4.123e+0, -4.245e-1
4.124e+0, -4.253e-1
4.125e+0, -4.260e-1
4.126e+0, -4.267e-1
4.127e+0, -4.274e-1
4.128e+0, -4.281e-1
4.129e+0, -4.288e-1
4.130e+0, -4.296e-1
4.131e+0, -4.302e-1
4.132e+0, -4.309e-1
4.133e+0, -4.316e-1
4.134e+0, -4.323e-1
4.135e+0, -4.330e-1
4.136e+0, -4.337e-1
4.137e+0, -4.345e-1
4.138e+0, -4.351e-1
4.139e+0, -4.358e-1
4.140e+0, -4.366e-1
4.141e+0, -4.372e-1
4.142e+0, -4.379e-1
4.143e+0, -4.386e-1
4.144e+0, -4.394e-1
4.145e+0, -4.400e-1
4.146e+0, -4.407e-1
4.147e+0, -4.414e-1
4.148e+0, -4.421e-1
4.149e+0, -4.428e-1
4.150e+0, -4.435e-1
4.151e+0, -4.442e-1
4.152e+0, -4.449e-1
4.153e+0, -4.456e-1
4.154e+0, -4.463e-1
4.155e+0, -4.470e-1
4.156e+0, -4.477e-1
4.157e+0, -4.484e-1
4.158e+0, -4.491e-1
4.159e+0, -4.498e-1
4.160e+0, -4.505e-1
4.161e+0, -4.511e-1
4.162e+0, -4.518e-1
4.163e+0, -4.526e-1
4.164e+0, -4.532e-1
4.165e+0, -4.540e-1
4.166e+0, -4.546e-1
4.167e+0, -4.553e-1
4.168e+0, -4.560e-1
4.169e+0, -4.567e-1
4.170e+0, -4.574e-1
4.171e+0, -4.581e-1
4.172e+0, -4.588e-1
4.173e+0, -4.595e-1
4.174e+0, -4.602e-1
4.175e+0, -4.609e-1
4.176e+0, -4.615e-1
4.177e+0, -4.622e-1
4.178e+0, -4.629e-1
4.179e+0, -4.636e-1
4.180e+0, -4.643e-1
4.181e+0, -4.649e-1
4.182e+0, -4.657e-1
4.183e+0, -4.664e-1
4.184e+0, -4.670e-1
4.185e+0, -4.677e-1
4.186e+0, -4.684e-1
4.187e+0, -4.691e-1
4.188e+0, -4.698e-1
4.189e+0, -4.705e-1
4.190e+0, -4.712e-1
4.191e+0, -4.718e-1
4.192e+0, -4.725e-1
4.193e+0, -4.732e-1
4.194e+0, -4.739e-1
4.195e+0, -4.746e-1
4.196e+0, -4.752e-1
4.197e+0, -4.759e-1
4.198e+0, -4.766e-1
4.199e+0, -4.772e-1
4.200e+0, -4.779e-1
4.201e+0, -4.786e-1
4.202e+0, -4.793e-1
4.203e+0, -4.800e-1
4.204e+0, -4.806e-1
4.205e+0, -4.813e-1
4.206e+0, -4.820e-1
4.207e+0, -4.827e-1
4.208e+0, -4.833e-1
4.209e+0, -4.840e-1
4.210e+0, -4.847e-1
4.211e+0, -4.854e-1
4.212e+0, -4.861e-1
4.213e+0, -4.867e-1
4.214e+0, -4.874e-1
4.215e+0, -4.881e-1
4.216e+0, -4.888e-1
4.217e+0, -4.895e-1
4.218e+0, -4.901e-1
4.219e+0, -4.908e-1
4.220e+0, -4.915e-1
4.221e+0, -4.921e-1
4.222e+0, -4.928e-1
4.223e+0, -4.935e-1
4.224e+0, -4.942e-1
4.225e+0, -4.948e-1
4.226e+0, -4.955e-1
4.227e+0, -4.962e-1
4.228e+0, -4.969e-1
4.229e+0, -4.975e-1
4.230e+0, -4.982e-1
4.231e+0, -4.988e-1
4.232e+0, -4.995e-1
4.233e+0, -5.002e-1
4.234e+0, -5.008e-1
4.235e+0, -5.015e-1
4.236e+0, -5.022e-1
4.237e+0, -5.028e-1
4.238e+0, -5.035e-1
4.239e+0, -5.042e-1
4.240e+0, -5.049e-1
4.241e+0, -5.055e-1
4.242e+0, -5.062e-1
4.243e+0, -5.069e-1
4.244e+0, -5.075e-1
4.245e+0, -5.082e-1
4.246e+0, -5.089e-1
4.247e+0, -5.095e-1
4.248e+0, -5.102e-1
4.249e+0, -5.108e-1
4.250e+0, -5.115e-1
4.251e+0, -5.121e-1
4.252e+0, -5.128e-1
4.253e+0, -5.135e-1
4.254e+0, -5.141e-1
4.255e+0, -5.148e-1
4.256e+0, -5.154e-1
4.257e+0, -5.161e-1
4.258e+0, -5.168e-1
4.259e+0, -5.174e-1
4.260e+0, -5.180e-1
4.261e+0, -5.187e-1
4.262e+0, -5.194e-1
4.263e+0, -5.200e-1
4.264e+0, -5.207e-1
4.265e+0, -5.213e-1
4.266e+0, -5.220e-1
4.267e+0, -5.227e-1
4.268e+0, -5.233e-1
4.269e+0, -5.240e-1
4.270e+0, -5.246e-1
4.271e+0, -5.253e-1
4.272e+0, -5.259e-1
4.273e+0, -5.266e-1
4.274e+0, -5.273e-1
4.275e+0, -5.279e-1
4.276e+0, -5.286e-1
4.277e+0, -5.292e-1
4.278e+0, -5.299e-1
4.279e+0, -5.305e-1
4.280e+0, -5.312e-1
4.281e+0, -5.319e-1
4.282e+0, -5.325e-1
4.283e+0, -5.331e-1
4.284e+0, -5.338e-1
4.285e+0, -5.344e-1
4.286e+0, -5.351e-1
4.287e+0, -5.357e-1
4.288e+0, -5.364e-1
4.289e+0, -5.371e-1
4.290e+0, -5.377e-1
4.291e+0, -5.384e-1
4.292e+0, -5.390e-1
4.293e+0, -5.396e-1
4.294e+0, -5.403e-1
4.295e+0, -5.409e-1
4.296e+0, -5.416e-1
4.297e+0, -5.422e-1
4.298e+0, -5.429e-1
4.299e+0, -5.435e-1
4.300e+0, -5.442e-1
4.301e+0, -5.448e-1
4.302e+0, -5.455e-1
4.303e+0, -5.461e-1
4.304e+0, -5.468e-1
4.305e+0, -5.474e-1
4.306e+0, -5.480e-1
4.307e+0, -5.487e-1
4.308e+0, -5.493e-1
4.309e+0, -5.500e-1
4.310e+0, -5.506e-1
4.311e+0, -5.513e-1
4.312e+0, -5.519e-1
4.313e+0, -5.525e-1
4.314e+0, -5.532e-1
4.315e+0, -5.538e-1
4.316e+0, -5.545e-1
4.317e+0, -5.551e-1
4.318e+0, -5.557e-1
4.319e+0, -5.564e-1
4.320e+0, -5.570e-1
4.321e+0, -5.576e-1
4.322e+0, -5.583e-1
4.323e+0, -5.590e-1
4.324e+0, -5.595e-1
4.325e+0, -5.602e-1
4.326e+0, -5.608e-1
4.327e+0, -5.615e-1
4.328e+0, -5.621e-1
4.329e+0, -5.627e-1
4.330e+0, -5.634e-1
4.331e+0, -5.640e-1
4.332e+0, -5.647e-1
4.333e+0, -5.653e-1
4.334e+0, -5.660e-1
4.335e+0, -5.666e-1
4.336e+0, -5.672e-1
4.337e+0, -5.679e-1
4.338e+0, -5.685e-1
4.339e+0, -5.692e-1
4.340e+0, -5.698e-1
4.341e+0, -5.704e-1
4.342e+0, -5.711e-1
4.343e+0, -5.717e-1
4.344e+0, -5.723e-1
4.345e+0, -5.729e-1
4.346e+0, -5.736e-1
4.347e+0, -5.742e-1
4.348e+0, -5.749e-1
4.349e+0, -5.755e-1
4.350e+0, -5.761e-1
4.351e+0, -5.768e-1
4.352e+0, -5.774e-1
4.353e+0, -5.780e-1
4.354e+0, -5.786e-1
4.355e+0, -5.792e-1
4.356e+0, -5.799e-1
4.357e+0, -5.805e-1
4.358e+0, -5.812e-1
4.359e+0, -5.818e-1
4.360e+0, -5.824e-1
4.361e+0, -5.831e-1
4.362e+0, -5.837e-1
4.363e+0, -5.843e-1
4.364e+0, -5.849e-1
4.365e+0, -5.856e-1
4.366e+0, -5.862e-1
4.367e+0, -5.869e-1
4.368e+0, -5.875e-1
4.369e+0, -5.881e-1
4.370e+0, -5.887e-1
4.371e+0, -5.893e-1
4.372e+0, -5.900e-1
4.373e+0, -5.906e-1
4.374e+0, -5.912e-1
4.375e+0, -5.919e-1
4.376e+0, -5.925e-1
4.377e+0, -5.931e-1
4.378e+0, -5.937e-1
4.379e+0, -5.943e-1
4.380e+0, -5.950e-1
4.381e+0, -5.956e-1
4.382e+0, -5.962e-1
4.383e+0, -5.968e-1
4.384e+0, -5.975e-1
4.385e+0, -5.981e-1
4.386e+0, -5.987e-1
4.387e+0, -5.993e-1
4.388e+0, -5.999e-1
4.389e+0, -6.006e-1
4.390e+0, -6.012e-1
4.391e+0, -6.018e-1
4.392e+0, -6.024e-1
4.393e+0, -6.030e-1
4.394e+0, -6.037e-1
4.395e+0, -6.043e-1
4.396e+0, -6.049e-1
4.397e+0, -6.055e-1
4.398e+0, -6.061e-1
4.399e+0, -6.068e-1
4.400e+0, -6.074e-1
4.401e+0, -6.080e-1
4.402e+0, -6.086e-1
4.403e+0, -6.093e-1
4.404e+0, -6.099e-1
4.405e+0, -6.105e-1
4.406e+0, -6.111e-1
4.407e+0, -6.117e-1
4.408e+0, -6.124e-1
4.409e+0, -6.130e-1
4.410e+0, -6.136e-1
4.411e+0, -6.142e-1
4.412e+0, -6.148e-1
4.413e+0, -6.154e-1
4.414e+0, -6.160e-1
4.415e+0, -6.167e-1
4.416e+0, -6.173e-1
4.417e+0, -6.179e-1
4.418e+0, -6.185e-1
4.419e+0, -6.191e-1
4.420e+0, -6.197e-1
4.421e+0, -6.203e-1
4.422e+0, -6.210e-1
4.423e+0, -6.216e-1
4.424e+0, -6.222e-1
4.425e+0, -6.228e-1
4.426e+0, -6.234e-1
4.427e+0, -6.240e-1
4.428e+0, -6.246e-1
4.429e+0, -6.253e-1
4.430e+0, -6.259e-1
4.431e+0, -6.265e-1
4.432e+0, -6.271e-1
4.433e+0, -6.277e-1
4.434e+0, -6.283e-1
4.435e+0, -6.289e-1
4.436e+0, -6.296e-1
4.437e+0, -6.301e-1
4.438e+0, -6.308e-1
4.439e+0, -6.313e-1
4.440e+0, -6.319e-1
4.441e+0, -6.326e-1
4.442e+0, -6.332e-1
4.443e+0, -6.338e-1
4.444e+0, -6.344e-1
4.445e+0, -6.350e-1
4.446e+0, -6.356e-1
4.447e+0, -6.362e-1
4.448e+0, -6.368e-1
4.449e+0, -6.374e-1
4.450e+0, -6.380e-1
4.451e+0, -6.386e-1
4.452e+0, -6.392e-1
4.453e+0, -6.398e-1
4.454e+0, -6.404e-1
4.455e+0, -6.411e-1
4.456e+0, -6.417e-1
4.457e+0, -6.423e-1
4.458e+0, -6.429e-1
4.459e+0, -6.435e-1
4.460e+0, -6.441e-1
4.461e+0, -6.447e-1
4.462e+0, -6.453e-1
4.463e+0, -6.459e-1
4.464e+0, -6.465e-1
4.465e+0, -6.471e-1
4.466e+0, -6.477e-1
4.467e+0, -6.483e-1
4.468e+0, -6.489e-1
4.469e+0, -6.495e-1
4.470e+0, -6.501e-1
4.471e+0, -6.507e-1
4.472e+0, -6.513e-1
4.473e+0, -6.519e-1
4.474e+0, -6.525e-1
4.475e+0, -6.531e-1
4.476e+0, -6.537e-1
4.477e+0, -6.543e-1
4.478e+0, -6.549e-1
4.479e+0, -6.555e-1
4.480e+0, -6.561e-1
4.481e+0, -6.567e-1
4.482e+0, -6.573e-1
4.483e+0, -6.579e-1
4.484e+0, -6.585e-1
4.485e+0, -6.591e-1
4.486e+0, -6.597e-1
4.487e+0, -6.603e-1
4.488e+0, -6.609e-1
4.489e+0, -6.615e-1
4.490e+0, -6.621e-1
4.491e+0, -6.627e-1
4.492e+0, -6.632e-1
4.493e+0, -6.638e-1
4.494e+0, -6.644e-1
4.495e+0, -6.651e-1
4.496e+0, -6.657e-1
4.497e+0, -6.662e-1
4.498e+0, -6.668e-1
4.499e+0, -6.674e-1
4.500e+0, -6.680e-1
4.501e+0, -6.686e-1
4.502e+0, -6.692e-1
4.503e+0, -6.698e-1
4.504e+0, -6.704e-1
4.505e+0, -6.710e-1
4.506e+0, -6.716e-1
4.507e+0, -6.722e-1
4.508e+0, -6.727e-1
4.509e+0, -6.734e-1
4.510e+0, -6.739e-1
4.511e+0, -6.745e-1
4.512e+0, -6.751e-1
4.513e+0, -6.757e-1
4.514e+0, -6.763e-1
4.515e+0, -6.769e-1
4.516e+0, -6.775e-1
4.517e+0, -6.780e-1
4.518e+0, -6.786e-1
4.519e+0, -6.792e-1
4.520e+0, -6.798e-1
4.521e+0, -6.804e-1
4.522e+0, -6.810e-1
4.523e+0, -6.816e-1
4.524e+0, -6.822e-1
4.525e+0, -6.828e-1
4.526e+0, -6.834e-1
4.527e+0, -6.840e-1
4.528e+0, -6.846e-1
4.529e+0, -6.851e-1
4.530e+0, -6.857e-1
4.531e+0, -6.863e-1
4.532e+0, -6.869e-1
4.533e+0, -6.874e-1
4.534e+0, -6.880e-1
4.535e+0, -6.887e-1
4.536e+0, -6.892e-1
4.537e+0, -6.898e-1
4.538e+0, -6.904e-1
4.539e+0, -6.910e-1
4.540e+0, -6.916e-1
4.541e+0, -6.921e-1
4.542e+0, -6.928e-1
4.543e+0, -6.933e-1
4.544e+0, -6.939e-1
4.545e+0, -6.945e-1
4.546e+0, -6.951e-1
4.547e+0, -6.956e-1
4.548e+0, -6.962e-1
4.549e+0, -6.969e-1
4.550e+0, -6.974e-1
4.551e+0, -6.980e-1
4.552e+0, -6.985e-1
4.553e+0, -6.991e-1
4.554e+0, -6.997e-1
4.555e+0, -7.003e-1
4.556e+0, -7.009e-1
4.557e+0, -7.014e-1
4.558e+0, -7.020e-1
4.559e+0, -7.026e-1
4.560e+0, -7.032e-1
4.561e+0, -7.038e-1
4.562e+0, -7.044e-1
4.563e+0, -7.049e-1
4.564e+0, -7.055e-1
4.565e+0, -7.061e-1
4.566e+0, -7.067e-1
4.567e+0, -7.073e-1
4.568e+0, -7.079e-1
4.569e+0, -7.084e-1
4.570e+0, -7.090e-1
4.571e+0, -7.095e-1
4.572e+0, -7.101e-1
4.573e+0, -7.107e-1
4.574e+0, -7.113e-1
4.575e+0, -7.119e-1
4.576e+0, -7.124e-1
4.577e+0, -7.130e-1
4.578e+0, -7.136e-1
4.579e+0, -7.141e-1
4.580e+0, -7.147e-1
4.581e+0, -7.153e-1
4.582e+0, -7.159e-1
4.583e+0, -7.164e-1
4.584e+0, -7.170e-1
4.585e+0, -7.176e-1
4.586e+0, -7.182e-1
4.587e+0, -7.188e-1
4.588e+0, -7.193e-1
4.589e+0, -7.199e-1
4.590e+0, -7.204e-1
4.591e+0, -7.210e-1
4.592e+0, -7.216e-1
4.593e+0, -7.222e-1
4.594e+0, -7.228e-1
4.595e+0, -7.233e-1
4.596e+0, -7.239e-1
4.597e+0, -7.245e-1
4.598e+0, -7.250e-1
4.599e+0, -7.256e-1
4.600e+0, -7.262e-1
4.601e+0, -7.268e-1
4.602e+0, -7.273e-1
4.603e+0, -7.279e-1
4.604e+0, -7.285e-1
4.605e+0, -7.290e-1
4.606e+0, -7.296e-1
4.607e+0, -7.302e-1
4.608e+0, -7.308e-1
4.609e+0, -7.313e-1
4.610e+0, -7.319e-1
4.611e+0, -7.325e-1
4.612e+0, -7.330e-1
4.613e+0, -7.336e-1
4.614e+0, -7.342e-1
4.615e+0, -7.348e-1
4.616e+0, -7.353e-1
4.617e+0, -7.359e-1
4.618e+0, -7.364e-1
4.619e+0, -7.370e-1
4.620e+0, -7.376e-1
4.621e+0, -7.381e-1
4.622e+0, -7.387e-1
4.623e+0, -7.393e-1
4.624e+0, -7.398e-1
4.625e+0, -7.404e-1
4.626e+0, -7.410e-1
4.627e+0, -7.416e-1
4.628e+0, -7.421e-1
4.629e+0, -7.427e-1
4.630e+0, -7.432e-1
4.631e+0, -7.438e-1
4.632e+0, -7.444e-1
4.633e+0, -7.449e-1
4.634e+0, -7.455e-1
4.635e+0, -7.460e-1
4.636e+0, -7.466e-1
4.637e+0, -7.472e-1
4.638e+0, -7.477e-1
4.639e+0, -7.483e-1
4.640e+0, -7.489e-1
4.641e+0, -7.495e-1
4.642e+0, -7.500e-1
4.643e+0, -7.505e-1
4.644e+0, -7.511e-1
4.645e+0, -7.517e-1
4.646e+0, -7.522e-1
4.647e+0, -7.528e-1
4.648e+0, -7.534e-1
4.649e+0, -7.539e-1
4.650e+0, -7.545e-1
4.651e+0, -7.550e-1
4.652e+0, -7.556e-1
4.653e+0, -7.562e-1
4.654e+0, -7.567e-1
4.655e+0, -7.573e-1
4.656e+0, -7.578e-1
4.657e+0, -7.584e-1
4.658e+0, -7.589e-1
4.659e+0, -7.595e-1
4.660e+0, -7.601e-1
4.661e+0, -7.606e-1
4.662e+0, -7.612e-1
4.663e+0, -7.618e-1
4.664e+0, -7.623e-1
4.665e+0, -7.629e-1
4.666e+0, -7.634e-1
4.667e+0, -7.640e-1
4.668e+0, -7.646e-1
4.669e+0, -7.651e-1
4.670e+0, -7.656e-1
4.671e+0, -7.662e-1
4.672e+0, -7.667e-1
4.673e+0, -7.673e-1
4.674e+0, -7.679e-1
4.675e+0, -7.684e-1
4.676e+0, -7.690e-1
4.677e+0, -7.695e-1
4.678e+0, -7.701e-1
4.679e+0, -7.707e-1
4.680e+0, -7.712e-1
4.681e+0, -7.718e-1
4.682e+0, -7.723e-1
4.683e+0, -7.729e-1
4.684e+0, -7.734e-1
4.685e+0, -7.740e-1
4.686e+0, -7.746e-1
4.687e+0, -7.751e-1
4.688e+0, -7.757e-1
4.689e+0, -7.762e-1
4.690e+0, -7.767e-1
4.691e+0, -7.773e-1
4.692e+0, -7.778e-1
4.693e+0, -7.784e-1
4.694e+0, -7.790e-1
4.695e+0, -7.795e-1
4.696e+0, -7.801e-1
4.697e+0, -7.806e-1
4.698e+0, -7.812e-1
4.699e+0, -7.818e-1
4.700e+0, -7.823e-1
4.701e+0, -7.829e-1
4.702e+0, -7.834e-1
4.703e+0, -7.840e-1
4.704e+0, -7.845e-1
4.705e+0, -7.851e-1
4.706e+0, -7.856e-1
4.707e+0, -7.862e-1
4.708e+0, -7.867e-1
4.709e+0, -7.873e-1
4.710e+0, -7.878e-1
4.711e+0, -7.884e-1
4.712e+0, -7.889e-1
4.713e+0, -7.894e-1
4.714e+0, -7.900e-1
4.715e+0, -7.905e-1
4.716e+0, -7.911e-1
4.717e+0, -7.916e-1
4.718e+0, -7.922e-1
4.719e+0, -7.927e-1
4.720e+0, -7.933e-1
4.721e+0, -7.938e-1
4.722e+0, -7.944e-1
4.723e+0, -7.949e-1
4.724e+0, -7.954e-1
4.725e+0, -7.960e-1
4.726e+0, -7.966e-1
4.727e+0, -7.971e-1
4.728e+0, -7.977e-1
4.729e+0, -7.982e-1
4.730e+0, -7.987e-1
4.731e+0, -7.993e-1
4.732e+0, -7.998e-1
4.733e+0, -8.004e-1
4.734e+0, -8.009e-1
4.735e+0, -8.015e-1
4.736e+0, -8.020e-1
4.737e+0, -8.026e-1
4.738e+0, -8.031e-1
4.739e+0, -8.037e-1
4.740e+0, -8.042e-1
4.741e+0, -8.047e-1
4.742e+0, -8.053e-1
4.743e+0, -8.058e-1
4.744e+0, -8.064e-1
4.745e+0, -8.069e-1
4.746e+0, -8.075e-1
4.747e+0, -8.080e-1
4.748e+0, -8.085e-1
4.749e+0, -8.091e-1
4.750e+0, -8.096e-1
4.751e+0, -8.102e-1
4.752e+0, -8.107e-1
4.753e+0, -8.113e-1
4.754e+0, -8.118e-1
4.755e+0, -8.123e-1
4.756e+0, -8.129e-1
4.757e+0, -8.134e-1
4.758e+0, -8.140e-1
4.759e+0, -8.145e-1
4.760e+0, -8.151e-1
4.761e+0, -8.156e-1
4.762e+0, -8.161e-1
4.763e+0, -8.167e-1
4.764e+0, -8.172e-1
4.765e+0, -8.177e-1
4.766e+0, -8.183e-1
4.767e+0, -8.189e-1
4.768e+0, -8.194e-1
4.769e+0, -8.199e-1
4.770e+0, -8.205e-1
4.771e+0, -8.210e-1
4.772e+0, -8.216e-1
4.773e+0, -8.221e-1
4.774e+0, -8.226e-1
4.775e+0, -8.232e-1
4.776e+0, -8.237e-1
4.777e+0, -8.242e-1
4.778e+0, -8.248e-1
4.779e+0, -8.253e-1
4.780e+0, -8.259e-1
4.781e+0, -8.264e-1
4.782e+0, -8.270e-1
4.783e+0, -8.275e-1
4.784e+0, -8.280e-1
4.785e+0, -8.285e-1
4.786e+0, -8.290e-1
4.787e+0, -8.296e-1
4.788e+0, -8.301e-1
4.789e+0, -8.307e-1
4.790e+0, -8.312e-1
4.791e+0, -8.318e-1
4.792e+0, -8.323e-1
4.793e+0, -8.328e-1
4.794e+0, -8.334e-1
4.795e+0, -8.339e-1
4.796e+0, -8.344e-1
4.797e+0, -8.349e-1
4.798e+0, -8.355e-1
4.799e+0, -8.360e-1
4.800e+0, -8.365e-1
4.801e+0, -8.371e-1
4.802e+0, -8.376e-1
4.803e+0, -8.381e-1
4.804e+0, -8.387e-1
4.805e+0, -8.393e-1
4.806e+0, -8.398e-1
4.807e+0, -8.403e-1
4.808e+0, -8.409e-1
4.809e+0, -8.414e-1
4.810e+0, -8.419e-1
4.811e+0, -8.424e-1
4.812e+0, -8.430e-1
4.813e+0, -8.435e-1
4.814e+0, -8.440e-1
4.815e+0, -8.446e-1
4.816e+0, -8.451e-1
4.817e+0, -8.456e-1
4.818e+0, -8.462e-1
4.819e+0, -8.467e-1
4.820e+0, -8.472e-1
4.821e+0, -8.477e-1
4.822e+0, -8.483e-1
4.823e+0, -8.488e-1
4.824e+0, -8.493e-1
4.825e+0, -8.499e-1
4.826e+0, -8.504e-1
4.827e+0, -8.510e-1
4.828e+0, -8.515e-1
4.829e+0, -8.520e-1
4.830e+0, -8.525e-1
4.831e+0, -8.531e-1
4.832e+0, -8.536e-1
4.833e+0, -8.541e-1
4.834e+0, -8.547e-1
4.835e+0, -8.552e-1
4.836e+0, -8.557e-1
4.837e+0, -8.562e-1
4.838e+0, -8.568e-1
4.839e+0, -8.573e-1
4.840e+0, -8.578e-1
4.841e+0, -8.584e-1
4.842e+0, -8.589e-1
4.843e+0, -8.594e-1
4.844e+0, -8.599e-1
4.845e+0, -8.605e-1
4.846e+0, -8.610e-1
4.847e+0, -8.615e-1
4.848e+0, -8.621e-1
4.849e+0, -8.626e-1
4.850e+0, -8.631e-1
4.851e+0, -8.636e-1
4.852e+0, -8.641e-1
4.853e+0, -8.647e-1
4.854e+0, -8.652e-1
4.855e+0, -8.657e-1
4.856e+0, -8.663e-1
4.857e+0, -8.668e-1
4.858e+0, -8.673e-1
4.859e+0, -8.678e-1
4.860e+0, -8.684e-1
4.861e+0, -8.689e-1
4.862e+0, -8.694e-1
4.863e+0, -8.699e-1
4.864e+0, -8.704e-1
4.865e+0, -8.710e-1
4.866e+0, -8.715e-1
4.867e+0, -8.720e-1
4.868e+0, -8.725e-1
4.869e+0, -8.730e-1
4.870e+0, -8.736e-1
4.871e+0, -8.741e-1
4.872e+0, -8.746e-1
4.873e+0, -8.751e-1
4.874e+0, -8.757e-1
4.875e+0, -8.762e-1
4.876e+0, -8.767e-1
4.877e+0, -8.772e-1
4.878e+0, -8.778e-1
4.879e+0, -8.783e-1
4.880e+0, -8.788e-1
4.881e+0, -8.794e-1
4.882e+0, -8.799e-1
4.883e+0, -8.804e-1
4.884e+0, -8.809e-1
4.885e+0, -8.815e-1
4.886e+0, -8.820e-1
4.887e+0, -8.824e-1
4.888e+0, -8.830e-1
4.889e+0, -8.835e-1
4.890e+0, -8.840e-1
4.891e+0, -8.845e-1
4.892e+0, -8.851e-1
4.893e+0, -8.856e-1
4.894e+0, -8.861e-1
4.895e+0, -8.867e-1
4.896e+0, -8.871e-1
4.897e+0, -8.877e-1
4.898e+0, -8.882e-1
4.899e+0, -8.887e-1
4.900e+0, -8.893e-1
4.901e+0, -8.898e-1
4.902e+0, -8.902e-1
4.903e+0, -8.908e-1
4.904e+0, -8.913e-1
4.905e+0, -8.918e-1
4.906e+0, -8.924e-1
4.907e+0, -8.929e-1
4.908e+0, -8.934e-1
4.909e+0, -8.939e-1
4.910e+0, -8.944e-1
4.911e+0, -8.949e-1
4.912e+0, -8.955e-1
4.913e+0, -8.960e-1
4.914e+0, -8.965e-1
4.915e+0, -8.970e-1
4.916e+0, -8.975e-1
4.917e+0, -8.980e-1
4.918e+0, -8.986e-1
4.919e+0, -8.991e-1
4.920e+0, -8.996e-1
4.921e+0, -9.001e-1
4.922e+0, -9.006e-1
4.923e+0, -9.011e-1
4.924e+0, -9.017e-1
4.925e+0, -9.022e-1
4.926e+0, -9.027e-1
4.927e+0, -9.032e-1
4.928e+0, -9.038e-1
4.929e+0, -9.042e-1
4.930e+0, -9.047e-1
4.931e+0, -9.053e-1
4.932e+0, -9.058e-1
4.933e+0, -9.063e-1
4.934e+0, -9.068e-1
4.935e+0, -9.073e-1
4.936e+0, -9.078e-1
4.937e+0, -9.084e-1
4.938e+0, -9.089e-1
4.939e+0, -9.094e-1
4.940e+0, -9.099e-1
4.941e+0, -9.104e-1
4.942e+0, -9.109e-1
4.943e+0, -9.114e-1
4.944e+0, -9.119e-1
4.945e+0, -9.125e-1
4.946e+0, -9.129e-1
4.947e+0, -9.135e-1
4.948e+0, -9.140e-1
4.949e+0, -9.145e-1
4.950e+0, -9.150e-1
4.951e+0, -9.155e-1
4.952e+0, -9.161e-1
4.953e+0, -9.166e-1
4.954e+0, -9.171e-1
4.955e+0, -9.176e-1
4.956e+0, -9.181e-1
4.957e+0, -9.186e-1
4.958e+0, -9.191e-1
4.959e+0, -9.197e-1
4.960e+0, -9.202e-1
4.961e+0, -9.207e-1
4.962e+0, -9.212e-1
4.963e+0, -9.217e-1
4.964e+0, -9.222e-1
4.965e+0, -9.227e-1
4.966e+0, -9.232e-1
4.967e+0, -9.237e-1
4.968e+0, -9.242e-1
4.969e+0, -9.247e-1
4.970e+0, -9.253e-1
4.971e+0, -9.258e-1
4.972e+0, -9.263e-1
4.973e+0, -9.268e-1
4.974e+0, -9.273e-1
4.975e+0, -9.278e-1
4.976e+0, -9.283e-1
4.977e+0, -9.288e-1
4.978e+0, -9.294e-1
4.979e+0, -9.298e-1
4.980e+0, -9.304e-1
4.981e+0, -9.309e-1
4.982e+0, -9.314e-1
4.983e+0, -9.319e-1
4.984e+0, -9.324e-1
4.985e+0, -9.329e-1
4.986e+0, -9.334e-1
4.987e+0, -9.339e-1
4.988e+0, -9.344e-1
4.989e+0, -9.350e-1
4.990e+0, -9.354e-1
4.991e+0, -9.360e-1
4.992e+0, -9.365e-1
4.993e+0, -9.370e-1
4.994e+0, -9.375e-1
4.995e+0, -9.380e-1
4.996e+0, -9.385e-1
4.997e+0, -9.390e-1
4.998e+0, -9.396e-1
4.999e+0, -9.401e-1
5.000e+0, -9.406e-1
5.001e+0, -9.411e-1
5.002e+0, -9.415e-1
5.003e+0, -9.420e-1
5.004e+0, -9.426e-1
5.005e+0, -9.431e-1
5.006e+0, -9.436e-1
5.007e+0, -9.441e-1
5.008e+0, -9.446e-1
5.009e+0, -9.451e-1
5.010e+0, -9.456e-1
5.011e+0, -9.461e-1
5.012e+0, -9.466e-1
5.013e+0, -9.471e-1
5.014e+0, -9.476e-1
5.015e+0, -9.481e-1
5.016e+0, -9.486e-1
5.017e+0, -9.491e-1
5.018e+0, -9.497e-1
5.019e+0, -9.501e-1
5.020e+0, -9.507e-1
5.021e+0, -9.511e-1
5.022e+0, -9.516e-1
5.023e+0, -9.522e-1
5.024e+0, -9.526e-1
5.025e+0, -9.532e-1
5.026e+0, -9.537e-1
5.027e+0, -9.542e-1
5.028e+0, -9.547e-1
5.029e+0, -9.552e-1
5.030e+0, -9.557e-1
5.031e+0, -9.562e-1
5.032e+0, -9.567e-1
5.033e+0, -9.572e-1
5.034e+0, -9.577e-1
5.035e+0, -9.582e-1
5.036e+0, -9.587e-1
5.037e+0, -9.592e-1
5.038e+0, -9.597e-1
5.039e+0, -9.603e-1
5.040e+0, -9.607e-1
5.041e+0, -9.613e-1
5.042e+0, -9.617e-1
5.043e+0, -9.622e-1
5.044e+0, -9.627e-1
5.045e+0, -9.633e-1
5.046e+0, -9.638e-1
5.047e+0, -9.642e-1
5.048e+0, -9.647e-1
5.049e+0, -9.652e-1
5.050e+0, -9.658e-1
5.051e+0, -9.663e-1
5.052e+0, -9.668e-1
5.053e+0, -9.673e-1
5.054e+0, -9.678e-1
5.055e+0, -9.683e-1
5.056e+0, -9.688e-1
5.057e+0, -9.693e-1
5.058e+0, -9.698e-1
5.059e+0, -9.703e-1
5.060e+0, -9.708e-1
5.061e+0, -9.713e-1
5.062e+0, -9.718e-1
5.063e+0, -9.723e-1
5.064e+0, -9.727e-1
5.065e+0, -9.733e-1
5.066e+0, -9.738e-1
5.067e+0, -9.743e-1
5.068e+0, -9.748e-1
5.069e+0, -9.753e-1
5.070e+0, -9.758e-1
5.071e+0, -9.763e-1
5.072e+0, -9.768e-1
5.073e+0, -9.773e-1
5.074e+0, -9.778e-1
5.075e+0, -9.783e-1
5.076e+0, -9.788e-1
5.077e+0, -9.793e-1
5.078e+0, -9.798e-1
5.079e+0, -9.803e-1
5.080e+0, -9.807e-1
5.081e+0, -9.813e-1
5.082e+0, -9.818e-1
5.083e+0, -9.822e-1
5.084e+0, -9.828e-1
5.085e+0, -9.832e-1
5.086e+0, -9.838e-1
5.087e+0, -9.843e-1
5.088e+0, -9.848e-1
5.089e+0, -9.852e-1
5.090e+0, -9.857e-1
5.091e+0, -9.862e-1
5.092e+0, -9.867e-1
5.093e+0, -9.872e-1
5.094e+0, -9.877e-1
5.095e+0, -9.882e-1
5.096e+0, -9.887e-1
5.097e+0, -9.892e-1
5.098e+0, -9.897e-1
5.099e+0, -9.902e-1
5.100e+0, -9.907e-1
5.101e+0, -9.911e-1
5.102e+0, -9.917e-1
5.103e+0, -9.921e-1
5.104e+0, -9.926e-1
5.105e+0, -9.931e-1
5.106e+0, -9.936e-1
5.107e+0, -9.942e-1
5.108e+0, -9.946e-1
5.109e+0, -9.951e-1
5.110e+0, -9.956e-1
5.111e+0, -9.961e-1
5.112e+0, -9.966e-1
5.113e+0, -9.971e-1
5.114e+0, -9.976e-1
5.115e+0, -9.981e-1
5.116e+0, -9.986e-1
5.117e+0, -9.990e-1
5.118e+0, -9.996e-1
