Mar. 28, 2018   20:28:01
Chronopotentiometry
File: c:\users\lingd\google drive\Data Source:  Experiment
Instrument Model:  CHI660E
Header: 
Note: 

Cathodic Current (A) = 0.1896
Anodic Current (A) = 0.1896
Init P/N = N
Data Storage Interval (s) = 0.001
High E Limit (V) = 0
Low E Limit (V) = -1
Cathodic Time (s) = 10
Anodic Time (s) = 10
Current Switching Polarity = Potential
Segment = 5

Time/sec, Potential/V

1.000e-3, -8.763e-1
2.000e-3, -8.889e-1
3.000e-3, -8.925e-1
4.000e-3, -8.931e-1
5.000e-3, -8.949e-1
6.000e-3, -8.982e-1
7.000e-3, -9.020e-1
8.000e-3, -9.059e-1
9.000e-3, -9.097e-1
1.000e-2, -9.134e-1
1.100e-2, -9.169e-1
1.200e-2, -9.204e-1
1.300e-2, -9.236e-1
1.400e-2, -9.268e-1
1.500e-2, -9.298e-1
1.600e-2, -9.328e-1
1.700e-2, -9.356e-1
1.800e-2, -9.384e-1
1.900e-2, -9.411e-1
2.000e-2, -9.437e-1
2.100e-2, -9.462e-1
2.200e-2, -9.487e-1
2.300e-2, -9.511e-1
2.400e-2, -9.534e-1
2.500e-2, -9.557e-1
2.600e-2, -9.580e-1
2.700e-2, -9.602e-1
2.800e-2, -9.623e-1
2.900e-2, -9.645e-1
3.000e-2, -9.665e-1
3.100e-2, -9.686e-1
3.200e-2, -9.706e-1
3.300e-2, -9.726e-1
3.400e-2, -9.745e-1
3.500e-2, -9.764e-1
3.600e-2, -9.783e-1
3.700e-2, -9.801e-1
3.800e-2, -9.819e-1
3.900e-2, -9.837e-1
4.000e-2, -9.855e-1
4.100e-2, -9.872e-1
4.200e-2, -9.889e-1
4.300e-2, -9.906e-1
4.400e-2, -9.922e-1
4.500e-2, -9.939e-1
4.600e-2, -9.956e-1
4.700e-2, -9.972e-1
4.800e-2, -9.988e-1
4.900e-2, -4.584e-1
5.000e-2, -4.270e-1
5.100e-2, -4.077e-1
5.200e-2, -3.936e-1
5.300e-2, -3.829e-1
5.400e-2, -3.755e-1
5.500e-2, -3.683e-1
5.600e-2, -3.611e-1
5.700e-2, -3.542e-1
5.800e-2, -3.477e-1
5.900e-2, -3.417e-1
6.000e-2, -3.359e-1
6.100e-2, -3.302e-1
6.200e-2, -3.249e-1
6.300e-2, -3.199e-1
6.400e-2, -3.152e-1
6.500e-2, -3.107e-1
6.600e-2, -3.064e-1
6.700e-2, -3.023e-1
6.800e-2, -2.984e-1
6.900e-2, -2.946e-1
7.000e-2, -2.909e-1
7.100e-2, -2.874e-1
7.200e-2, -2.840e-1
7.300e-2, -2.808e-1
7.400e-2, -2.776e-1
7.500e-2, -2.746e-1
7.600e-2, -2.716e-1
7.700e-2, -2.686e-1
7.800e-2, -2.658e-1
7.900e-2, -2.631e-1
8.000e-2, -2.604e-1
8.100e-2, -2.577e-1
8.200e-2, -2.552e-1
8.300e-2, -2.527e-1
8.400e-2, -2.502e-1
8.500e-2, -2.478e-1
8.600e-2, -2.454e-1
8.700e-2, -2.431e-1
8.800e-2, -2.409e-1
8.900e-2, -2.387e-1
9.000e-2, -2.365e-1
9.100e-2, -2.343e-1
9.200e-2, -2.322e-1
9.300e-2, -2.302e-1
9.400e-2, -2.281e-1
9.500e-2, -2.261e-1
9.600e-2, -2.241e-1
9.700e-2, -2.222e-1
9.800e-2, -2.202e-1
9.900e-2, -2.183e-1
1.000e-1, -2.164e-1
1.010e-1, -2.146e-1
1.020e-1, -2.128e-1
1.030e-1, -2.109e-1
1.040e-1, -2.092e-1
1.050e-1, -2.074e-1
1.060e-1, -2.056e-1
1.070e-1, -2.039e-1
1.080e-1, -2.022e-1
1.090e-1, -2.005e-1
1.100e-1, -1.988e-1
1.110e-1, -1.972e-1
1.120e-1, -1.956e-1
1.130e-1, -1.940e-1
1.140e-1, -1.924e-1
1.150e-1, -1.908e-1
1.160e-1, -1.894e-1
1.170e-1, -1.879e-1
1.180e-1, -1.865e-1
1.190e-1, -1.851e-1
1.200e-1, -1.837e-1
1.210e-1, -1.824e-1
1.220e-1, -1.811e-1
1.230e-1, -1.800e-1
1.240e-1, -1.789e-1
1.250e-1, -1.779e-1
1.260e-1, -1.769e-1
1.270e-1, -1.759e-1
1.280e-1, -1.748e-1
1.290e-1, -1.736e-1
1.300e-1, -1.724e-1
1.310e-1, -1.712e-1
1.320e-1, -1.699e-1
1.330e-1, -1.686e-1
1.340e-1, -1.673e-1
1.350e-1, -1.659e-1
1.360e-1, -1.645e-1
1.370e-1, -1.630e-1
1.380e-1, -1.615e-1
1.390e-1, -1.598e-1
1.400e-1, -1.580e-1
1.410e-1, -1.562e-1
1.420e-1, -1.544e-1
1.430e-1, -1.527e-1
1.440e-1, -1.511e-1
1.450e-1, -1.498e-1
1.460e-1, -1.486e-1
1.470e-1, -1.475e-1
1.480e-1, -1.469e-1
1.490e-1, -1.465e-1
1.500e-1, -1.458e-1
1.510e-1, -1.450e-1
1.520e-1, -1.441e-1
1.530e-1, -1.434e-1
1.540e-1, -1.429e-1
1.550e-1, -1.424e-1
1.560e-1, -1.419e-1
1.570e-1, -1.414e-1
1.580e-1, -1.409e-1
1.590e-1, -1.403e-1
1.600e-1, -1.395e-1
1.610e-1, -1.388e-1
1.620e-1, -1.380e-1
1.630e-1, -1.372e-1
1.640e-1, -1.364e-1
1.650e-1, -1.356e-1
1.660e-1, -1.348e-1
1.670e-1, -1.339e-1
1.680e-1, -1.331e-1
1.690e-1, -1.322e-1
1.700e-1, -1.314e-1
1.710e-1, -1.305e-1
1.720e-1, -1.297e-1
1.730e-1, -1.289e-1
1.740e-1, -1.280e-1
1.750e-1, -1.272e-1
1.760e-1, -1.263e-1
1.770e-1, -1.255e-1
1.780e-1, -1.247e-1
1.790e-1, -1.239e-1
1.800e-1, -1.231e-1
1.810e-1, -1.222e-1
1.820e-1, -1.214e-1
1.830e-1, -1.206e-1
1.840e-1, -1.198e-1
1.850e-1, -1.190e-1
1.860e-1, -1.182e-1
1.870e-1, -1.174e-1
1.880e-1, -1.166e-1
1.890e-1, -1.158e-1
1.900e-1, -1.150e-1
1.910e-1, -1.142e-1
1.920e-1, -1.134e-1
1.930e-1, -1.126e-1
1.940e-1, -1.118e-1
1.950e-1, -1.110e-1
1.960e-1, -1.103e-1
1.970e-1, -1.095e-1
1.980e-1, -1.087e-1
1.990e-1, -1.080e-1
2.000e-1, -1.072e-1
2.010e-1, -1.064e-1
2.020e-1, -1.057e-1
2.030e-1, -1.050e-1
2.040e-1, -1.042e-1
2.050e-1, -1.034e-1
2.060e-1, -1.027e-1
2.070e-1, -1.020e-1
2.080e-1, -1.012e-1
2.090e-1, -1.005e-1
2.100e-1, -9.972e-2
2.110e-1, -9.902e-2
2.120e-1, -9.828e-2
2.130e-1, -9.755e-2
2.140e-1, -9.682e-2
2.150e-1, -9.608e-2
2.160e-1, -9.543e-2
2.170e-1, -9.468e-2
2.180e-1, -9.398e-2
2.190e-1, -9.323e-2
2.200e-1, -9.253e-2
2.210e-1, -9.182e-2
2.220e-1, -9.111e-2
2.230e-1, -9.043e-2
2.240e-1, -8.973e-2
2.250e-1, -8.902e-2
2.260e-1, -8.835e-2
2.270e-1, -8.766e-2
2.280e-1, -8.693e-2
2.290e-1, -8.626e-2
2.300e-1, -8.563e-2
2.310e-1, -8.490e-2
2.320e-1, -8.424e-2
2.330e-1, -8.357e-2
2.340e-1, -8.290e-2
2.350e-1, -8.227e-2
2.360e-1, -8.157e-2
2.370e-1, -8.092e-2
2.380e-1, -8.023e-2
2.390e-1, -7.956e-2
2.400e-1, -7.890e-2
2.410e-1, -7.825e-2
2.420e-1, -7.761e-2
2.430e-1, -7.690e-2
2.440e-1, -7.628e-2
2.450e-1, -7.561e-2
2.460e-1, -7.496e-2
2.470e-1, -7.428e-2
2.480e-1, -7.364e-2
2.490e-1, -7.303e-2
2.500e-1, -7.238e-2
2.510e-1, -7.172e-2
2.520e-1, -7.106e-2
2.530e-1, -7.044e-2
2.540e-1, -6.985e-2
2.550e-1, -6.921e-2
2.560e-1, -6.858e-2
2.570e-1, -6.793e-2
2.580e-1, -6.730e-2
2.590e-1, -6.666e-2
2.600e-1, -6.606e-2
2.610e-1, -6.547e-2
2.620e-1, -6.481e-2
2.630e-1, -6.419e-2
2.640e-1, -6.358e-2
2.650e-1, -6.295e-2
2.660e-1, -6.236e-2
2.670e-1, -6.174e-2
2.680e-1, -6.116e-2
2.690e-1, -6.052e-2
2.700e-1, -5.992e-2
2.710e-1, -5.932e-2
2.720e-1, -5.871e-2
2.730e-1, -5.815e-2
2.740e-1, -5.748e-2
2.750e-1, -5.696e-2
2.760e-1, -5.632e-2
2.770e-1, -5.569e-2
2.780e-1, -5.510e-2
2.790e-1, -5.452e-2
2.800e-1, -5.394e-2
2.810e-1, -5.333e-2
2.820e-1, -5.271e-2
2.830e-1, -5.213e-2
2.840e-1, -5.154e-2
2.850e-1, -5.094e-2
2.860e-1, -5.037e-2
2.870e-1, -4.986e-2
2.880e-1, -4.923e-2
2.890e-1, -4.865e-2
2.900e-1, -4.808e-2
2.910e-1, -4.750e-2
2.920e-1, -4.694e-2
2.930e-1, -4.633e-2
2.940e-1, -4.581e-2
2.950e-1, -4.524e-2
2.960e-1, -4.465e-2
2.970e-1, -4.410e-2
2.980e-1, -4.352e-2
2.990e-1, -4.298e-2
3.000e-1, -4.239e-2
3.010e-1, -4.179e-2
3.020e-1, -4.127e-2
3.030e-1, -4.069e-2
3.040e-1, -4.014e-2
3.050e-1, -3.956e-2
3.060e-1, -3.905e-2
3.070e-1, -3.847e-2
3.080e-1, -3.790e-2
3.090e-1, -3.735e-2
3.100e-1, -3.679e-2
3.110e-1, -3.630e-2
3.120e-1, -3.569e-2
3.130e-1, -3.515e-2
3.140e-1, -3.456e-2
3.150e-1, -3.404e-2
3.160e-1, -3.347e-2
3.170e-1, -3.296e-2
3.180e-1, -3.242e-2
3.190e-1, -3.182e-2
3.200e-1, -3.129e-2
3.210e-1, -3.076e-2
3.220e-1, -3.022e-2
3.230e-1, -2.967e-2
3.240e-1, -2.915e-2
3.250e-1, -2.865e-2
3.260e-1, -2.805e-2
3.270e-1, -2.752e-2
3.280e-1, -2.698e-2
3.290e-1, -2.645e-2
3.300e-1, -2.593e-2
3.310e-1, -2.538e-2
3.320e-1, -2.487e-2
3.330e-1, -2.431e-2
3.340e-1, -2.379e-2
3.350e-1, -2.327e-2
3.360e-1, -2.274e-2
3.370e-1, -2.222e-2
3.380e-1, -2.167e-2
3.390e-1, -2.114e-2
3.400e-1, -2.065e-2
3.410e-1, -2.014e-2
3.420e-1, -1.960e-2
3.430e-1, -1.910e-2
3.440e-1, -1.859e-2
3.450e-1, -1.805e-2
3.460e-1, -1.751e-2
3.470e-1, -1.700e-2
3.480e-1, -1.649e-2
3.490e-1, -1.601e-2
3.500e-1, -1.545e-2
3.510e-1, -1.495e-2
3.520e-1, -1.439e-2
3.530e-1, -1.387e-2
3.540e-1, -1.337e-2
3.550e-1, -1.289e-2
3.560e-1, -1.238e-2
3.570e-1, -1.183e-2
3.580e-1, -1.134e-2
3.590e-1, -1.085e-2
3.600e-1, -1.032e-2
3.610e-1, -9.835e-3
3.620e-1, -9.345e-3
3.630e-1, -8.841e-3
3.640e-1, -8.313e-3
3.650e-1, -7.812e-3
3.660e-1, -7.307e-3
3.670e-1, -6.790e-3
3.680e-1, -6.334e-3
3.690e-1, -5.831e-3
3.700e-1, -5.360e-3
3.710e-1, -4.833e-3
3.720e-1, -4.324e-3
3.730e-1, -3.819e-3
3.740e-1, -3.355e-3
3.750e-1, -2.870e-3
3.760e-1, -2.345e-3
3.770e-1, -1.849e-3
3.780e-1, -1.373e-3
3.790e-1, -8.982e-4
3.800e-1, -3.851e-4
3.810e-1, -4.781e-1
3.820e-1, -5.093e-1
3.830e-1, -5.325e-1
3.840e-1, -5.507e-1
3.850e-1, -5.656e-1
3.860e-1, -5.783e-1
3.870e-1, -5.893e-1
3.880e-1, -5.990e-1
3.890e-1, -6.077e-1
3.900e-1, -6.158e-1
3.910e-1, -6.231e-1
3.920e-1, -6.301e-1
3.930e-1, -6.369e-1
3.940e-1, -6.433e-1
3.950e-1, -6.493e-1
3.960e-1, -6.551e-1
3.970e-1, -6.605e-1
3.980e-1, -6.657e-1
3.990e-1, -6.706e-1
4.000e-1, -6.754e-1
4.010e-1, -6.800e-1
4.020e-1, -6.846e-1
4.030e-1, -6.891e-1
4.040e-1, -6.936e-1
4.050e-1, -6.981e-1
4.060e-1, -7.026e-1
4.070e-1, -7.070e-1
4.080e-1, -7.113e-1
4.090e-1, -7.154e-1
4.100e-1, -7.191e-1
4.110e-1, -7.223e-1
4.120e-1, -7.251e-1
4.130e-1, -7.277e-1
4.140e-1, -7.304e-1
4.150e-1, -7.332e-1
4.160e-1, -7.359e-1
4.170e-1, -7.388e-1
4.180e-1, -7.418e-1
4.190e-1, -7.450e-1
4.200e-1, -7.484e-1
4.210e-1, -7.524e-1
4.220e-1, -7.565e-1
4.230e-1, -7.600e-1
4.240e-1, -7.632e-1
4.250e-1, -7.666e-1
4.260e-1, -7.698e-1
4.270e-1, -7.723e-1
4.280e-1, -7.734e-1
4.290e-1, -7.742e-1
4.300e-1, -7.759e-1
4.310e-1, -7.785e-1
4.320e-1, -7.816e-1
4.330e-1, -7.846e-1
4.340e-1, -7.873e-1
4.350e-1, -7.893e-1
4.360e-1, -7.912e-1
4.370e-1, -7.932e-1
4.380e-1, -7.953e-1
4.390e-1, -7.973e-1
4.400e-1, -7.993e-1
4.410e-1, -8.012e-1
4.420e-1, -8.032e-1
4.430e-1, -8.053e-1
4.440e-1, -8.074e-1
4.450e-1, -8.095e-1
4.460e-1, -8.115e-1
4.470e-1, -8.136e-1
4.480e-1, -8.157e-1
4.490e-1, -8.176e-1
4.500e-1, -8.197e-1
4.510e-1, -8.216e-1
4.520e-1, -8.235e-1
4.530e-1, -8.253e-1
4.540e-1, -8.272e-1
4.550e-1, -8.290e-1
4.560e-1, -8.307e-1
4.570e-1, -8.325e-1
4.580e-1, -8.343e-1
4.590e-1, -8.360e-1
4.600e-1, -8.377e-1
4.610e-1, -8.394e-1
4.620e-1, -8.410e-1
4.630e-1, -8.425e-1
4.640e-1, -8.439e-1
4.650e-1, -8.452e-1
4.660e-1, -8.464e-1
4.670e-1, -8.476e-1
4.680e-1, -8.488e-1
4.690e-1, -8.500e-1
4.700e-1, -8.511e-1
4.710e-1, -8.523e-1
4.720e-1, -8.536e-1
4.730e-1, -8.549e-1
4.740e-1, -8.562e-1
4.750e-1, -8.575e-1
4.760e-1, -8.589e-1
4.770e-1, -8.602e-1
4.780e-1, -8.615e-1
4.790e-1, -8.629e-1
4.800e-1, -8.642e-1
4.810e-1, -8.656e-1
4.820e-1, -8.670e-1
4.830e-1, -8.683e-1
4.840e-1, -8.696e-1
4.850e-1, -8.710e-1
4.860e-1, -8.723e-1
4.870e-1, -8.737e-1
4.880e-1, -8.750e-1
4.890e-1, -8.763e-1
4.900e-1, -8.776e-1
4.910e-1, -8.790e-1
4.920e-1, -8.803e-1
4.930e-1, -8.816e-1
4.940e-1, -8.829e-1
4.950e-1, -8.842e-1
4.960e-1, -8.855e-1
4.970e-1, -8.867e-1
4.980e-1, -8.880e-1
4.990e-1, -8.893e-1
5.000e-1, -8.906e-1
5.010e-1, -8.918e-1
5.020e-1, -8.931e-1
5.030e-1, -8.943e-1
5.040e-1, -8.955e-1
5.050e-1, -8.968e-1
5.060e-1, -8.980e-1
5.070e-1, -8.992e-1
5.080e-1, -9.004e-1
5.090e-1, -9.016e-1
5.100e-1, -9.028e-1
5.110e-1, -9.040e-1
5.120e-1, -9.052e-1
5.130e-1, -9.064e-1
5.140e-1, -9.076e-1
5.150e-1, -9.087e-1
5.160e-1, -9.099e-1
5.170e-1, -9.110e-1
5.180e-1, -9.122e-1
5.190e-1, -9.134e-1
5.200e-1, -9.145e-1
5.210e-1, -9.157e-1
5.220e-1, -9.168e-1
5.230e-1, -9.179e-1
5.240e-1, -9.191e-1
5.250e-1, -9.202e-1
5.260e-1, -9.213e-1
5.270e-1, -9.224e-1
5.280e-1, -9.235e-1
5.290e-1, -9.246e-1
5.300e-1, -9.257e-1
5.310e-1, -9.268e-1
5.320e-1, -9.279e-1
5.330e-1, -9.290e-1
5.340e-1, -9.300e-1
5.350e-1, -9.311e-1
5.360e-1, -9.322e-1
5.370e-1, -9.332e-1
5.380e-1, -9.344e-1
5.390e-1, -9.354e-1
5.400e-1, -9.365e-1
5.410e-1, -9.375e-1
5.420e-1, -9.385e-1
5.430e-1, -9.396e-1
5.440e-1, -9.406e-1
5.450e-1, -9.417e-1
5.460e-1, -9.427e-1
5.470e-1, -9.437e-1
5.480e-1, -9.448e-1
5.490e-1, -9.458e-1
5.500e-1, -9.468e-1
5.510e-1, -9.477e-1
5.520e-1, -9.488e-1
5.530e-1, -9.498e-1
5.540e-1, -9.508e-1
5.550e-1, -9.517e-1
5.560e-1, -9.528e-1
5.570e-1, -9.538e-1
5.580e-1, -9.547e-1
5.590e-1, -9.558e-1
5.600e-1, -9.567e-1
5.610e-1, -9.577e-1
5.620e-1, -9.587e-1
5.630e-1, -9.596e-1
5.640e-1, -9.606e-1
5.650e-1, -9.616e-1
5.660e-1, -9.625e-1
5.670e-1, -9.635e-1
5.680e-1, -9.644e-1
5.690e-1, -9.654e-1
5.700e-1, -9.663e-1
5.710e-1, -9.673e-1
5.720e-1, -9.682e-1
5.730e-1, -9.692e-1
5.740e-1, -9.701e-1
5.750e-1, -9.710e-1
5.760e-1, -9.720e-1
5.770e-1, -9.729e-1
5.780e-1, -9.738e-1
5.790e-1, -9.747e-1
5.800e-1, -9.757e-1
5.810e-1, -9.766e-1
5.820e-1, -9.775e-1
5.830e-1, -9.784e-1
5.840e-1, -9.793e-1
5.850e-1, -9.802e-1
5.860e-1, -9.811e-1
5.870e-1, -9.820e-1
5.880e-1, -9.829e-1
5.890e-1, -9.838e-1
5.900e-1, -9.848e-1
5.910e-1, -9.856e-1
5.920e-1, -9.865e-1
5.930e-1, -9.873e-1
5.940e-1, -9.882e-1
5.950e-1, -9.892e-1
5.960e-1, -9.900e-1
5.970e-1, -9.909e-1
5.980e-1, -9.917e-1
5.990e-1, -9.926e-1
6.000e-1, -9.935e-1
6.010e-1, -9.943e-1
6.020e-1, -9.953e-1
6.030e-1, -9.961e-1
6.040e-1, -9.970e-1
6.050e-1, -9.978e-1
6.060e-1, -9.987e-1
6.070e-1, -9.995e-1
6.080e-1, -4.660e-1
6.090e-1, -4.368e-1
6.100e-1, -4.175e-1
6.110e-1, -4.025e-1
6.120e-1, -3.900e-1
6.130e-1, -3.795e-1
6.140e-1, -3.712e-1
6.150e-1, -3.636e-1
6.160e-1, -3.562e-1
6.170e-1, -3.490e-1
6.180e-1, -3.423e-1
6.190e-1, -3.358e-1
6.200e-1, -3.294e-1
6.210e-1, -3.234e-1
6.220e-1, -3.178e-1
6.230e-1, -3.124e-1
6.240e-1, -3.073e-1
6.250e-1, -3.024e-1
6.260e-1, -2.978e-1
6.270e-1, -2.933e-1
6.280e-1, -2.890e-1
6.290e-1, -2.848e-1
6.300e-1, -2.808e-1
6.310e-1, -2.770e-1
6.320e-1, -2.733e-1
6.330e-1, -2.697e-1
6.340e-1, -2.662e-1
6.350e-1, -2.627e-1
6.360e-1, -2.593e-1
6.370e-1, -2.561e-1
6.380e-1, -2.529e-1
6.390e-1, -2.498e-1
6.400e-1, -2.468e-1
6.410e-1, -2.439e-1
6.420e-1, -2.409e-1
6.430e-1, -2.381e-1
6.440e-1, -2.353e-1
6.450e-1, -2.326e-1
6.460e-1, -2.298e-1
6.470e-1, -2.272e-1
6.480e-1, -2.246e-1
6.490e-1, -2.220e-1
6.500e-1, -2.194e-1
6.510e-1, -2.170e-1
6.520e-1, -2.145e-1
6.530e-1, -2.121e-1
6.540e-1, -2.096e-1
6.550e-1, -2.072e-1
6.560e-1, -2.049e-1
6.570e-1, -2.025e-1
6.580e-1, -2.002e-1
6.590e-1, -1.979e-1
6.600e-1, -1.957e-1
6.610e-1, -1.935e-1
6.620e-1, -1.913e-1
6.630e-1, -1.892e-1
6.640e-1, -1.872e-1
6.650e-1, -1.852e-1
6.660e-1, -1.833e-1
6.670e-1, -1.814e-1
6.680e-1, -1.795e-1
6.690e-1, -1.777e-1
6.700e-1, -1.762e-1
6.710e-1, -1.749e-1
6.720e-1, -1.738e-1
6.730e-1, -1.726e-1
6.740e-1, -1.712e-1
6.750e-1, -1.698e-1
6.760e-1, -1.682e-1
6.770e-1, -1.667e-1
6.780e-1, -1.650e-1
6.790e-1, -1.633e-1
6.800e-1, -1.616e-1
6.810e-1, -1.597e-1
6.820e-1, -1.578e-1
6.830e-1, -1.558e-1
6.840e-1, -1.538e-1
6.850e-1, -1.514e-1
6.860e-1, -1.491e-1
6.870e-1, -1.467e-1
6.880e-1, -1.445e-1
6.890e-1, -1.427e-1
6.900e-1, -1.412e-1
6.910e-1, -1.400e-1
6.920e-1, -1.391e-1
6.930e-1, -1.385e-1
6.940e-1, -1.376e-1
6.950e-1, -1.364e-1
6.960e-1, -1.352e-1
6.970e-1, -1.340e-1
6.980e-1, -1.332e-1
6.990e-1, -1.325e-1
7.000e-1, -1.319e-1
7.010e-1, -1.312e-1
7.020e-1, -1.304e-1
7.030e-1, -1.296e-1
7.040e-1, -1.287e-1
7.050e-1, -1.277e-1
7.060e-1, -1.267e-1
7.070e-1, -1.257e-1
7.080e-1, -1.247e-1
7.090e-1, -1.236e-1
7.100e-1, -1.226e-1
7.110e-1, -1.215e-1
7.120e-1, -1.204e-1
7.130e-1, -1.194e-1
7.140e-1, -1.183e-1
7.150e-1, -1.173e-1
7.160e-1, -1.162e-1
7.170e-1, -1.152e-1
7.180e-1, -1.141e-1
7.190e-1, -1.130e-1
7.200e-1, -1.120e-1
7.210e-1, -1.110e-1
7.220e-1, -1.100e-1
7.230e-1, -1.089e-1
7.240e-1, -1.079e-1
7.250e-1, -1.069e-1
7.260e-1, -1.059e-1
7.270e-1, -1.049e-1
7.280e-1, -1.039e-1
7.290e-1, -1.029e-1
7.300e-1, -1.019e-1
7.310e-1, -1.009e-1
7.320e-1, -9.993e-2
7.330e-1, -9.900e-2
7.340e-1, -9.800e-2
7.350e-1, -9.704e-2
7.360e-1, -9.613e-2
7.370e-1, -9.516e-2
7.380e-1, -9.421e-2
7.390e-1, -9.325e-2
7.400e-1, -9.232e-2
7.410e-1, -9.140e-2
7.420e-1, -9.047e-2
7.430e-1, -8.954e-2
7.440e-1, -8.864e-2
7.450e-1, -8.773e-2
7.460e-1, -8.683e-2
7.470e-1, -8.595e-2
7.480e-1, -8.509e-2
7.490e-1, -8.418e-2
7.500e-1, -8.330e-2
7.510e-1, -8.244e-2
7.520e-1, -8.154e-2
7.530e-1, -8.068e-2
7.540e-1, -7.980e-2
7.550e-1, -7.902e-2
7.560e-1, -7.809e-2
7.570e-1, -7.724e-2
7.580e-1, -7.639e-2
7.590e-1, -7.553e-2
7.600e-1, -7.473e-2
7.610e-1, -7.385e-2
7.620e-1, -7.309e-2
7.630e-1, -7.220e-2
7.640e-1, -7.138e-2
7.650e-1, -7.056e-2
7.660e-1, -6.974e-2
7.670e-1, -6.898e-2
7.680e-1, -6.815e-2
7.690e-1, -6.733e-2
7.700e-1, -6.651e-2
7.710e-1, -6.571e-2
7.720e-1, -6.492e-2
7.730e-1, -6.415e-2
7.740e-1, -6.336e-2
7.750e-1, -6.256e-2
7.760e-1, -6.180e-2
7.770e-1, -6.102e-2
7.780e-1, -6.021e-2
7.790e-1, -5.949e-2
7.800e-1, -5.872e-2
7.810e-1, -5.797e-2
7.820e-1, -5.717e-2
7.830e-1, -5.641e-2
7.840e-1, -5.569e-2
7.850e-1, -5.494e-2
7.860e-1, -5.419e-2
7.870e-1, -5.342e-2
7.880e-1, -5.270e-2
7.890e-1, -5.194e-2
7.900e-1, -5.119e-2
7.910e-1, -5.049e-2
7.920e-1, -4.976e-2
7.930e-1, -4.906e-2
7.940e-1, -4.831e-2
7.950e-1, -4.758e-2
7.960e-1, -4.686e-2
7.970e-1, -4.615e-2
7.980e-1, -4.549e-2
7.990e-1, -4.477e-2
8.000e-1, -4.410e-2
8.010e-1, -4.336e-2
8.020e-1, -4.261e-2
8.030e-1, -4.193e-2
8.040e-1, -4.126e-2
8.050e-1, -4.056e-2
8.060e-1, -3.988e-2
8.070e-1, -3.921e-2
8.080e-1, -3.852e-2
8.090e-1, -3.784e-2
8.100e-1, -3.712e-2
8.110e-1, -3.647e-2
8.120e-1, -3.582e-2
8.130e-1, -3.510e-2
8.140e-1, -3.441e-2
8.150e-1, -3.376e-2
8.160e-1, -3.308e-2
8.170e-1, -3.244e-2
8.180e-1, -3.173e-2
8.190e-1, -3.110e-2
8.200e-1, -3.042e-2
8.210e-1, -2.976e-2
8.220e-1, -2.911e-2
8.230e-1, -2.846e-2
8.240e-1, -2.781e-2
8.250e-1, -2.716e-2
8.260e-1, -2.653e-2
8.270e-1, -2.586e-2
8.280e-1, -2.521e-2
8.290e-1, -2.457e-2
8.300e-1, -2.392e-2
8.310e-1, -2.332e-2
8.320e-1, -2.268e-2
8.330e-1, -2.205e-2
8.340e-1, -2.141e-2
8.350e-1, -2.079e-2
8.360e-1, -2.021e-2
8.370e-1, -1.952e-2
8.380e-1, -1.895e-2
8.390e-1, -1.829e-2
8.400e-1, -1.765e-2
8.410e-1, -1.707e-2
8.420e-1, -1.645e-2
8.430e-1, -1.585e-2
8.440e-1, -1.519e-2
8.450e-1, -1.460e-2
8.460e-1, -1.399e-2
8.470e-1, -1.337e-2
8.480e-1, -1.274e-2
8.490e-1, -1.217e-2
8.500e-1, -1.158e-2
8.510e-1, -1.097e-2
8.520e-1, -1.036e-2
8.530e-1, -9.761e-3
8.540e-1, -9.144e-3
8.550e-1, -8.586e-3
8.560e-1, -7.981e-3
8.570e-1, -7.409e-3
8.580e-1, -6.784e-3
8.590e-1, -6.189e-3
8.600e-1, -5.633e-3
8.610e-1, -5.063e-3
8.620e-1, -4.498e-3
8.630e-1, -3.899e-3
8.640e-1, -3.337e-3
8.650e-1, -2.730e-3
8.660e-1, -2.161e-3
8.670e-1, -1.590e-3
8.680e-1, -1.028e-3
8.690e-1, -4.728e-4
8.700e-1, -4.785e-1
8.710e-1, -5.101e-1
8.720e-1, -5.336e-1
8.730e-1, -5.517e-1
8.740e-1, -5.664e-1
8.750e-1, -5.790e-1
8.760e-1, -5.899e-1
8.770e-1, -5.996e-1
8.780e-1, -6.083e-1
8.790e-1, -6.162e-1
8.800e-1, -6.236e-1
8.810e-1, -6.305e-1
8.820e-1, -6.372e-1
8.830e-1, -6.435e-1
8.840e-1, -6.495e-1
8.850e-1, -6.552e-1
8.860e-1, -6.604e-1
8.870e-1, -6.656e-1
8.880e-1, -6.704e-1
8.890e-1, -6.751e-1
8.900e-1, -6.796e-1
8.910e-1, -6.842e-1
8.920e-1, -6.888e-1
8.930e-1, -6.933e-1
8.940e-1, -6.978e-1
8.950e-1, -7.023e-1
8.960e-1, -7.067e-1
8.970e-1, -7.109e-1
8.980e-1, -7.147e-1
8.990e-1, -7.179e-1
9.000e-1, -7.206e-1
9.010e-1, -7.233e-1
9.020e-1, -7.259e-1
9.030e-1, -7.286e-1
9.040e-1, -7.314e-1
9.050e-1, -7.342e-1
9.060e-1, -7.371e-1
9.070e-1, -7.403e-1
9.080e-1, -7.438e-1
9.090e-1, -7.477e-1
9.100e-1, -7.519e-1
9.110e-1, -7.554e-1
9.120e-1, -7.586e-1
9.130e-1, -7.619e-1
9.140e-1, -7.650e-1
9.150e-1, -7.672e-1
9.160e-1, -7.681e-1
9.170e-1, -7.689e-1
9.180e-1, -7.708e-1
9.190e-1, -7.734e-1
9.200e-1, -7.765e-1
9.210e-1, -7.796e-1
9.220e-1, -7.820e-1
9.230e-1, -7.840e-1
9.240e-1, -7.859e-1
9.250e-1, -7.879e-1
9.260e-1, -7.898e-1
9.270e-1, -7.918e-1
9.280e-1, -7.937e-1
9.290e-1, -7.956e-1
9.300e-1, -7.976e-1
9.310e-1, -7.996e-1
9.320e-1, -8.017e-1
9.330e-1, -8.037e-1
9.340e-1, -8.058e-1
9.350e-1, -8.078e-1
9.360e-1, -8.098e-1
9.370e-1, -8.118e-1
9.380e-1, -8.137e-1
9.390e-1, -8.156e-1
9.400e-1, -8.174e-1
9.410e-1, -8.193e-1
9.420e-1, -8.211e-1
9.430e-1, -8.228e-1
9.440e-1, -8.245e-1
9.450e-1, -8.263e-1
9.460e-1, -8.281e-1
9.470e-1, -8.297e-1
9.480e-1, -8.313e-1
9.490e-1, -8.329e-1
9.500e-1, -8.343e-1
9.510e-1, -8.358e-1
9.520e-1, -8.371e-1
9.530e-1, -8.384e-1
9.540e-1, -8.395e-1
9.550e-1, -8.407e-1
9.560e-1, -8.418e-1
9.570e-1, -8.429e-1
9.580e-1, -8.441e-1
9.590e-1, -8.452e-1
9.600e-1, -8.465e-1
9.610e-1, -8.477e-1
9.620e-1, -8.489e-1
9.630e-1, -8.503e-1
9.640e-1, -8.515e-1
9.650e-1, -8.529e-1
9.660e-1, -8.541e-1
9.670e-1, -8.555e-1
9.680e-1, -8.568e-1
9.690e-1, -8.581e-1
9.700e-1, -8.595e-1
9.710e-1, -8.607e-1
9.720e-1, -8.621e-1
9.730e-1, -8.633e-1
9.740e-1, -8.647e-1
9.750e-1, -8.660e-1
9.760e-1, -8.673e-1
9.770e-1, -8.685e-1
9.780e-1, -8.698e-1
9.790e-1, -8.711e-1
9.800e-1, -8.723e-1
9.810e-1, -8.736e-1
9.820e-1, -8.748e-1
9.830e-1, -8.761e-1
9.840e-1, -8.774e-1
9.850e-1, -8.786e-1
9.860e-1, -8.798e-1
9.870e-1, -8.811e-1
9.880e-1, -8.823e-1
9.890e-1, -8.835e-1
9.900e-1, -8.847e-1
9.910e-1, -8.859e-1
9.920e-1, -8.871e-1
9.930e-1, -8.883e-1
9.940e-1, -8.895e-1
9.950e-1, -8.906e-1
9.960e-1, -8.918e-1
9.970e-1, -8.930e-1
9.980e-1, -8.941e-1
9.990e-1, -8.953e-1
1.000e+0, -8.964e-1
1.001e+0, -8.976e-1
1.002e+0, -8.987e-1
1.003e+0, -8.999e-1
1.004e+0, -9.010e-1
1.005e+0, -9.021e-1
1.006e+0, -9.032e-1
1.007e+0, -9.043e-1
1.008e+0, -9.055e-1
1.009e+0, -9.065e-1
1.010e+0, -9.076e-1
1.011e+0, -9.087e-1
1.012e+0, -9.098e-1
1.013e+0, -9.109e-1
1.014e+0, -9.119e-1
1.015e+0, -9.130e-1
1.016e+0, -9.141e-1
1.017e+0, -9.152e-1
1.018e+0, -9.162e-1
1.019e+0, -9.173e-1
1.020e+0, -9.183e-1
1.021e+0, -9.194e-1
1.022e+0, -9.204e-1
1.023e+0, -9.214e-1
1.024e+0, -9.225e-1
1.025e+0, -9.235e-1
1.026e+0, -9.245e-1
1.027e+0, -9.256e-1
1.028e+0, -9.266e-1
1.029e+0, -9.276e-1
1.030e+0, -9.286e-1
1.031e+0, -9.296e-1
1.032e+0, -9.306e-1
1.033e+0, -9.316e-1
1.034e+0, -9.326e-1
1.035e+0, -9.336e-1
1.036e+0, -9.346e-1
1.037e+0, -9.355e-1
1.038e+0, -9.366e-1
1.039e+0, -9.376e-1
1.040e+0, -9.385e-1
1.041e+0, -9.395e-1
1.042e+0, -9.404e-1
1.043e+0, -9.414e-1
1.044e+0, -9.424e-1
1.045e+0, -9.433e-1
1.046e+0, -9.443e-1
1.047e+0, -9.452e-1
1.048e+0, -9.462e-1
1.049e+0, -9.471e-1
1.050e+0, -9.480e-1
1.051e+0, -9.490e-1
1.052e+0, -9.499e-1
1.053e+0, -9.509e-1
1.054e+0, -9.518e-1
1.055e+0, -9.527e-1
1.056e+0, -9.536e-1
1.057e+0, -9.545e-1
1.058e+0, -9.555e-1
1.059e+0, -9.564e-1
1.060e+0, -9.573e-1
1.061e+0, -9.582e-1
1.062e+0, -9.591e-1
1.063e+0, -9.600e-1
1.064e+0, -9.609e-1
1.065e+0, -9.618e-1
1.066e+0, -9.627e-1
1.067e+0, -9.636e-1
1.068e+0, -9.645e-1
1.069e+0, -9.654e-1
1.070e+0, -9.663e-1
1.071e+0, -9.672e-1
1.072e+0, -9.681e-1
1.073e+0, -9.689e-1
1.074e+0, -9.698e-1
1.075e+0, -9.707e-1
1.076e+0, -9.715e-1
1.077e+0, -9.724e-1
1.078e+0, -9.733e-1
1.079e+0, -9.742e-1
1.080e+0, -9.750e-1
1.081e+0, -9.758e-1
1.082e+0, -9.767e-1
1.083e+0, -9.776e-1
1.084e+0, -9.784e-1
1.085e+0, -9.793e-1
1.086e+0, -9.801e-1
1.087e+0, -9.810e-1
1.088e+0, -9.818e-1
1.089e+0, -9.826e-1
1.090e+0, -9.835e-1
1.091e+0, -9.843e-1
1.092e+0, -9.852e-1
1.093e+0, -9.860e-1
1.094e+0, -9.868e-1
1.095e+0, -9.876e-1
1.096e+0, -9.885e-1
1.097e+0, -9.893e-1
1.098e+0, -9.901e-1
1.099e+0, -9.909e-1
1.100e+0, -9.917e-1
1.101e+0, -9.926e-1
1.102e+0, -9.933e-1
1.103e+0, -9.942e-1
1.104e+0, -9.950e-1
1.105e+0, -9.958e-1
1.106e+0, -9.966e-1
1.107e+0, -9.974e-1
1.108e+0, -9.982e-1
1.109e+0, -9.990e-1
1.110e+0, -9.999e-1
